Time,header.seq,header.stamp.secs,header.stamp.nsecs,header.frame_id,orientation.x,orientation.y,orientation.z,orientation.w,orientation_covariance_0,orientation_covariance_1,orientation_covariance_2,orientation_covariance_3,orientation_covariance_4,orientation_covariance_5,orientation_covariance_6,orientation_covariance_7,orientation_covariance_8,angular_velocity.x,angular_velocity.y,angular_velocity.z,angular_velocity_covariance_0,angular_velocity_covariance_1,angular_velocity_covariance_2,angular_velocity_covariance_3,angular_velocity_covariance_4,angular_velocity_covariance_5,angular_velocity_covariance_6,angular_velocity_covariance_7,angular_velocity_covariance_8,linear_acceleration.x,linear_acceleration.y,linear_acceleration.z,linear_acceleration_covariance_0,linear_acceleration_covariance_1,linear_acceleration_covariance_2,linear_acceleration_covariance_3,linear_acceleration_covariance_4,linear_acceleration_covariance_5,linear_acceleration_covariance_6,linear_acceleration_covariance_7,linear_acceleration_covariance_8
1648214423.5061445,17682,1648214423,505776865,fufi_imu_link,-0.0038103544691918253,-0.010331241710712317,0.022254243394733305,0.9996917001228238,0.0,0.0,0.0,0.0,0.0,0.0,0.0,0.0,0.0,0.0066751474514603615,0.004306768998503685,0.007545197382569313,0.01,0.0,0.0,0.0,0.01,0.0,0.0,0.0,0.01,-0.07686036825180054,0.1210361123085022,9.784984588623047,0.01,0.0,0.0,0.0,0.01,0.0,0.0,0.0,0.01
1648214423.5255353,17683,1648214423,525137229,fufi_imu_link,-0.0038222669187737953,-0.010127440034134304,0.022332467952758842,0.9996919956211991,0.0,0.0,0.0,0.0,0.0,0.0,0.0,0.0,0.0,0.001924821874126792,0.009423770010471344,0.00802386924624443,0.01,0.0,0.0,0.0,0.01,0.0,0.0,0.0,0.01,-0.23801231384277344,-0.1746121048927307,9.633408546447754,0.01,0.0,0.0,0.0,0.01,0.0,0.0,0.0,0.01
1648214423.543688,17684,1648214423,543144165,fufi_imu_link,-0.003883548517351466,-0.009947717902247315,0.022353568741742866,0.9996930923658316,0.0,0.0,0.0,0.0,0.0,0.0,0.0,0.0,0.0,-0.004004971589893103,-3.041885793209076e-05,0.002274921163916588,0.01,0.0,0.0,0.0,0.01,0.0,0.0,0.0,0.01,-0.5096151232719421,-0.16083140671253204,9.708553314208984,0.01,0.0,0.0,0.0,0.01,0.0,0.0,0.0,0.01
1648214423.5813675,17685,1648214423,580589158,fufi_imu_link,-0.003830280224776435,-0.00965659621963302,0.02216231919760064,0.9997004104783765,0.0,0.0,0.0,0.0,0.0,0.0,0.0,0.0,0.0,0.00396308908239007,0.005993140395730734,-0.010283086448907852,0.01,0.0,0.0,0.0,0.01,0.0,0.0,0.0,0.01,-0.502434492111206,-0.1412057876586914,9.67078971862793,0.01,0.0,0.0,0.0,0.01,0.0,0.0,0.0,0.01
1648214423.5896802,17686,1648214423,588717993,fufi_imu_link,-0.0038150445979726207,-0.009458482427187716,0.022124745394798542,0.9997031950464625,0.0,0.0,0.0,0.0,0.0,0.0,0.0,0.0,0.0,0.002900508465245366,0.004322954453527927,-0.009429553523659706,0.01,0.0,0.0,0.0,0.01,0.0,0.0,0.0,0.01,-0.5110888481140137,-0.04881293699145317,9.626740455627441,0.01,0.0,0.0,0.0,0.01,0.0,0.0,0.0,0.01
1648214423.6184316,17687,1648214423,617818012,fufi_imu_link,-0.003893658790186191,-0.009268681109501253,0.022108478177107357,0.9997050295784294,0.0,0.0,0.0,0.0,0.0,0.0,0.0,0.0,0.0,-0.0058724950067698956,0.0012856298126280308,-0.0011021941900253296,0.01,0.0,0.0,0.0,0.01,0.0,0.0,0.0,0.01,-0.48497381806373596,-0.037005648016929626,9.604366302490234,0.01,0.0,0.0,0.0,0.01,0.0,0.0,0.0,0.01
1648214423.644826,17688,1648214423,644500882,fufi_imu_link,-0.0038160129241806584,-0.009165514485041286,0.022176697873316224,0.9997047691498838,0.0,0.0,0.0,0.0,0.0,0.0,0.0,0.0,0.0,0.005456989631056786,-0.003302459605038166,0.005010692402720451,0.01,0.0,0.0,0.0,0.01,0.0,0.0,0.0,0.01,-0.3816779851913452,-0.047679562121629715,9.62199878692627,0.01,0.0,0.0,0.0,0.01,0.0,0.0,0.0,0.01
1648214423.655346,17689,1648214423,655053155,fufi_imu_link,-0.0038326464718961488,-0.0090009127856033,0.022203965770118662,0.9997055958101501,0.0,0.0,0.0,0.0,0.0,0.0,0.0,0.0,0.0,-0.0036059743724763393,0.0017286892980337143,0.005094991996884346,0.01,0.0,0.0,0.0,0.01,0.0,0.0,0.0,0.01,-0.4271281063556671,-0.053683992475271225,9.667007446289062,0.01,0.0,0.0,0.0,0.01,0.0,0.0,0.0,0.01
1648214423.663493,17690,1648214423,663152959,fufi_imu_link,-0.00382212543068098,-0.008872937595477418,0.022234220630765637,0.999706107697938,0.0,0.0,0.0,0.0,0.0,0.0,0.0,0.0,0.0,-0.0018248476553708315,-0.00044197216629981995,0.00739792175590992,0.01,0.0,0.0,0.0,0.01,0.0,0.0,0.0,0.01,-0.329435795545578,0.0032481150701642036,9.705917358398438,0.01,0.0,0.0,0.0,0.01,0.0,0.0,0.0,0.01
1648214423.6932075,17691,1648214423,692568026,fufi_imu_link,-0.0038303728804870716,-0.008906244504141982,0.022385896773469156,0.9997023950546866,0.0,0.0,0.0,0.0,0.0,0.0,0.0,0.0,0.0,-0.0009610858978703618,-0.006728705018758774,0.010283781215548515,0.01,0.0,0.0,0.0,0.01,0.0,0.0,0.0,0.01,-0.07975723594427109,-0.052429016679525375,9.57632827758789,0.01,0.0,0.0,0.0,0.01,0.0,0.0,0.0,0.01
1648214423.7302923,17692,1648214423,729569576,fufi_imu_link,-0.003789406648200501,-0.008994078495305756,0.022382628445470846,0.9997018379962832,0.0,0.0,0.0,0.0,0.0,0.0,0.0,0.0,0.0,0.001978078158572316,-0.006817308720201254,-0.0002277921885251999,0.01,0.0,0.0,0.0,0.01,0.0,0.0,0.0,0.01,0.02871675044298172,-0.06912094354629517,9.816843032836914,0.01,0.0,0.0,0.0,0.01,0.0,0.0,0.0,0.01
1648214423.7391818,17693,1648214423,738276615,fufi_imu_link,-0.0037719205820390188,-0.008969961693784426,0.022367317838362877,0.999702463483537,0.0,0.0,0.0,0.0,0.0,0.0,0.0,0.0,0.0,0.01236734353005886,-0.0020409533753991127,-0.0037408359348773956,0.01,0.0,0.0,0.0,0.01,0.0,0.0,0.0,0.01,0.045358262956142426,-0.21200650930404663,9.523726463317871,0.01,0.0,0.0,0.0,0.01,0.0,0.0,0.0,0.01
1648214423.7771943,17694,1648214423,776614588,fufi_imu_link,-0.003810121076392442,-0.008962718551591135,0.022104253897254216,0.9997082347431144,0.0,0.0,0.0,0.0,0.0,0.0,0.0,0.0,0.0,-0.00012108829105272889,0.0013597812503576279,-0.01373497024178505,0.01,0.0,0.0,0.0,0.01,0.0,0.0,0.0,0.01,0.23548763990402222,-0.2226640284061432,9.61149787902832,0.01,0.0,0.0,0.0,0.01,0.0,0.0,0.0,0.01
1648214423.805433,17695,1648214423,804479936,fufi_imu_link,-0.0035942182149979493,-0.009114525519285342,0.021989550698641645,0.9997101913454984,0.0,0.0,0.0,0.0,0.0,0.0,0.0,0.0,0.0,0.015605161897838116,-0.005781474988907576,-0.008379144594073296,0.01,0.0,0.0,0.0,0.01,0.0,0.0,0.0,0.01,0.46318691968917847,-0.0957694724202156,9.615920066833496,0.01,0.0,0.0,0.0,0.01,0.0,0.0,0.0,0.01
1648214423.8139799,17696,1648214423,813331530,fufi_imu_link,-0.0035730117547036148,-0.009184769260678087,0.021946509107897135,0.9997105702845229,0.0,0.0,0.0,0.0,0.0,0.0,0.0,0.0,0.0,0.0036680169869214296,-0.00120869604870677,-0.00970105268061161,0.01,0.0,0.0,0.0,0.01,0.0,0.0,0.0,0.01,0.4212968945503235,-0.060453444719314575,9.535477638244629,0.01,0.0,0.0,0.0,0.01,0.0,0.0,0.0,0.01
1648214423.8603547,17697,1648214423,859687900,fufi_imu_link,-0.003521322602417338,-0.00931168282888577,0.022037512930011296,0.9997075776815357,0.0,0.0,0.0,0.0,0.0,0.0,0.0,0.0,0.0,0.0015500832814723253,-0.0015502129681408405,0.003928739577531815,0.01,0.0,0.0,0.0,0.01,0.0,0.0,0.0,0.01,0.5354946851730347,-0.01898026466369629,9.681283950805664,0.01,0.0,0.0,0.0,0.01,0.0,0.0,0.0,0.01
1648214423.8607488,17698,1648214423,860314110,fufi_imu_link,-0.0034980510190418873,-0.00943844097502949,0.02203869853190728,0.9997064445316178,0.0,0.0,0.0,0.0,0.0,0.0,0.0,0.0,0.0,-0.011124907061457634,0.0020784949883818626,0.006206415593624115,0.01,0.0,0.0,0.0,0.01,0.0,0.0,0.0,0.01,0.6639230251312256,0.020438693463802338,9.519710540771484,0.01,0.0,0.0,0.0,0.01,0.0,0.0,0.0,0.01
1648214423.879691,17699,1648214423,879213370,fufi_imu_link,-0.0034403767640797307,-0.009616732837875076,0.022088561018735617,0.9997038450107951,0.0,0.0,0.0,0.0,0.0,0.0,0.0,0.0,0.0,0.00574536994099617,-0.004161085933446884,0.005266683176159859,0.01,0.0,0.0,0.0,0.01,0.0,0.0,0.0,0.01,0.7186774611473083,-0.07032040506601334,9.569196701049805,0.01,0.0,0.0,0.0,0.01,0.0,0.0,0.0,0.01
1648214423.88857,17700,1648214423,887919564,fufi_imu_link,-0.003420207500068447,-0.009734640815943043,0.022135307738794244,0.9997017390702839,0.0,0.0,0.0,0.0,0.0,0.0,0.0,0.0,0.0,0.00470485957339406,0.0027140332385897636,0.010815726593136787,0.01,0.0,0.0,0.0,0.01,0.0,0.0,0.0,0.01,0.7007370591163635,-0.08119554817676544,9.826881408691406,0.01,0.0,0.0,0.0,0.01,0.0,0.0,0.0,0.01
1648214423.9353466,17701,1648214423,934574918,fufi_imu_link,-0.0034927553381054583,-0.009785363367760914,0.022368666971160706,0.9996957987617245,0.0,0.0,0.0,0.0,0.0,0.0,0.0,0.0,0.0,-0.002409867476671934,0.003877110779285431,0.010060641914606094,0.01,0.0,0.0,0.0,0.01,0.0,0.0,0.0,0.01,0.7165423035621643,-0.12816530466079712,9.497556686401367,0.01,0.0,0.0,0.0,0.01,0.0,0.0,0.0,0.01
1648214423.9359624,17702,1648214423,935484126,fufi_imu_link,-0.00351154635361446,-0.009889326886036054,0.02237314753842704,0.9996946096309468,0.0,0.0,0.0,0.0,0.0,0.0,0.0,0.0,0.0,-0.013960419222712517,0.009171437472105026,0.010648747906088829,0.01,0.0,0.0,0.0,0.01,0.0,0.0,0.0,0.01,0.594802975654602,-0.1267806589603424,9.505485534667969,0.01,0.0,0.0,0.0,0.01,0.0,0.0,0.0,0.01
1648214424.0012038,17703,1648214424,598207,fufi_imu_link,-0.003633336050727207,-0.009850712071527821,0.02265637457148141,0.9996881768992285,0.0,0.0,0.0,0.0,0.0,0.0,0.0,0.0,0.0,-0.0033067171461880207,0.0025734566152095795,0.008746189996600151,0.01,0.0,0.0,0.0,0.01,0.0,0.0,0.0,0.01,0.3559131622314453,-0.11470048874616623,9.653547286987305,0.01,0.0,0.0,0.0,0.01,0.0,0.0,0.0,0.01
1648214424.0107927,17704,1648214424,10178074,fufi_imu_link,-0.003672161766713126,-0.00989850459603252,0.022698213993654355,0.9996866138526712,0.0,0.0,0.0,0.0,0.0,0.0,0.0,0.0,0.0,-0.007354133762419224,0.001688414253294468,0.00885496474802494,0.01,0.0,0.0,0.0,0.01,0.0,0.0,0.0,0.01,0.40590018033981323,-0.09261905401945114,9.756570816040039,0.01,0.0,0.0,0.0,0.01,0.0,0.0,0.0,0.01
1648214424.0760646,17705,1648214424,75357936,fufi_imu_link,-0.003892807452098923,-0.00951758386867715,0.022543767932051248,0.9996929729546314,0.0,0.0,0.0,0.0,0.0,0.0,0.0,0.0,0.0,-0.007487460970878601,0.011189674958586693,-0.00461936928331852,0.01,0.0,0.0,0.0,0.01,0.0,0.0,0.0,0.01,0.09867076575756073,0.03833144158124924,9.683340072631836,0.01,0.0,0.0,0.0,0.01,0.0,0.0,0.0,0.01
1648214424.0936441,17706,1648214424,93036080,fufi_imu_link,-0.0038565145101423825,-0.009471897061165467,0.022510322753586692,0.9996943011898313,0.0,0.0,0.0,0.0,0.0,0.0,0.0,0.0,0.0,0.0026748415548354387,0.0017472305335104465,-0.0038038846105337143,0.01,0.0,0.0,0.0,0.01,0.0,0.0,0.0,0.01,0.06682704389095306,-0.02693364955484867,9.542267799377441,0.01,0.0,0.0,0.0,0.01,0.0,0.0,0.0,0.01
1648214424.1316335,17707,1648214424,131026463,fufi_imu_link,-0.0038244996260618836,-0.009334484150129406,0.0225846573848559,0.9996940401238121,0.0,0.0,0.0,0.0,0.0,0.0,0.0,0.0,0.0,0.0013994810869917274,0.0038318680599331856,0.003906304016709328,0.01,0.0,0.0,0.0,0.01,0.0,0.0,0.0,0.01,-0.06634151190519333,-0.04284001141786575,9.73914909362793,0.01,0.0,0.0,0.0,0.01,0.0,0.0,0.0,0.01
1648214424.140154,17708,1648214424,139467473,fufi_imu_link,-0.0038196965953789636,-0.009228769283784103,0.022602574493167556,0.9996946350569792,0.0,0.0,0.0,0.0,0.0,0.0,0.0,0.0,0.0,0.0021844706498086452,0.005939836148172617,0.004164157435297966,0.01,0.0,0.0,0.0,0.01,0.0,0.0,0.0,0.01,-0.1327928900718689,-0.08501428365707397,9.664986610412598,0.01,0.0,0.0,0.0,0.01,0.0,0.0,0.0,0.01
1648214424.151076,17709,1648214424,150286838,fufi_imu_link,-0.0038609204009620295,-0.009105480745118986,0.02262642814100452,0.9996950676399469,0.0,0.0,0.0,0.0,0.0,0.0,0.0,0.0,0.0,-0.004546002019196749,0.005703738424926996,0.004378460347652435,0.01,0.0,0.0,0.0,0.01,0.0,0.0,0.0,0.01,-0.1811283528804779,-0.12859593331813812,9.489933013916016,0.01,0.0,0.0,0.0,0.01,0.0,0.0,0.0,0.01
1648214424.168537,17710,1648214424,167859112,fufi_imu_link,-0.0038422643758483314,-0.008985276209627496,0.02268783087323553,0.9996948355104023,0.0,0.0,0.0,0.0,0.0,0.0,0.0,0.0,0.0,0.002749713370576501,0.005242521408945322,0.006948186084628105,0.01,0.0,0.0,0.0,0.01,0.0,0.0,0.0,0.01,-0.11152257025241852,-0.08749961853027344,9.74623966217041,0.01,0.0,0.0,0.0,0.01,0.0,0.0,0.0,0.01
1648214424.2057116,17711,1648214424,205263013,fufi_imu_link,-0.003761992650863116,-0.008740801281517057,0.022638458353221265,0.9996984275308437,0.0,0.0,0.0,0.0,0.0,0.0,0.0,0.0,0.0,0.006363893859088421,0.0059568979777395725,-0.0027196835726499557,0.01,0.0,0.0,0.0,0.01,0.0,0.0,0.0,0.01,-0.33361580967903137,-0.2031456083059311,9.526432037353516,0.01,0.0,0.0,0.0,0.01,0.0,0.0,0.0,0.01
1648214424.2134156,17712,1648214424,213156275,fufi_imu_link,-0.003771094092239066,-0.008578717338172856,0.02262260310335349,0.9997001561903487,0.0,0.0,0.0,0.0,0.0,0.0,0.0,0.0,0.0,0.002289327559992671,0.008264615200459957,-0.004175290465354919,0.01,0.0,0.0,0.0,0.01,0.0,0.0,0.0,0.01,-0.3326208293437958,-0.13187533617019653,9.59591007232666,0.01,0.0,0.0,0.0,0.01,0.0,0.0,0.0,0.01
1648214424.2428896,17713,1648214424,242560895,fufi_imu_link,-0.0036682073722134096,-0.008367303306554129,0.022543561300789664,0.9997041163934098,0.0,0.0,0.0,0.0,0.0,0.0,0.0,0.0,0.0,0.00983443669974804,0.004560706205666065,-0.00550505518913269,0.01,0.0,0.0,0.0,0.01,0.0,0.0,0.0,0.01,-0.3837622106075287,-0.21716508269309998,9.566934585571289,0.01,0.0,0.0,0.0,0.01,0.0,0.0,0.0,0.01
1648214424.279968,17714,1648214424,279623595,fufi_imu_link,-0.003614873498379357,-0.008130166907134336,0.022361773523513602,0.9997103501317449,0.0,0.0,0.0,0.0,0.0,0.0,0.0,0.0,0.0,0.004840278998017311,0.00359628489241004,-0.009890411980450153,0.01,0.0,0.0,0.0,0.01,0.0,0.0,0.0,0.01,-0.5021480917930603,-0.2000998556613922,9.729342460632324,0.01,0.0,0.0,0.0,0.01,0.0,0.0,0.0,0.01
1648214424.2882714,17715,1648214424,287983941,fufi_imu_link,-0.0035834506244642305,-0.00795392492606099,0.022307525484085634,0.9997130929755145,0.0,0.0,0.0,0.0,0.0,0.0,0.0,0.0,0.0,0.011079750955104828,0.002546559553593397,-0.013238859362900257,0.01,0.0,0.0,0.0,0.01,0.0,0.0,0.0,0.01,-0.4841368794441223,-0.11677595973014832,9.680859565734863,0.01,0.0,0.0,0.0,0.01,0.0,0.0,0.0,0.01
1648214424.327013,17716,1648214424,326452806,fufi_imu_link,-0.0035277885535234606,-0.007979497764596836,0.02226033915568056,0.9997141389537415,0.0,0.0,0.0,0.0,0.0,0.0,0.0,0.0,0.0,0.002407204359769821,-0.007348922081291676,-0.0025191493332386017,0.01,0.0,0.0,0.0,0.01,0.0,0.0,0.0,0.01,-0.29073622822761536,-0.03957445174455643,9.731524467468262,0.01,0.0,0.0,0.0,0.01,0.0,0.0,0.0,0.01
1648214424.355028,17717,1648214424,354479071,fufi_imu_link,-0.0034025574850137102,-0.00796821203337996,0.022265561072721846,0.9997145467530565,0.0,0.0,0.0,0.0,0.0,0.0,0.0,0.0,0.0,0.009696434251964092,-0.008078522980213165,0.00022845901548862457,0.01,0.0,0.0,0.0,0.01,0.0,0.0,0.0,0.01,-0.3089504837989807,-0.10681474953889847,9.456735610961914,0.01,0.0,0.0,0.0,0.01,0.0,0.0,0.0,0.01
1648214424.363614,17718,1648214424,363029824,fufi_imu_link,-0.0033850875381392694,-0.00794815752651631,0.022275766356670765,0.9997145383595838,0.0,0.0,0.0,0.0,0.0,0.0,0.0,0.0,0.0,-0.002472333610057831,-0.011984821408987045,0.0023566968739032745,0.01,0.0,0.0,0.0,0.01,0.0,0.0,0.0,0.01,-0.1218704804778099,0.04151909053325653,9.777728080749512,0.01,0.0,0.0,0.0,0.01,0.0,0.0,0.0,0.01
1648214424.410641,17719,1648214424,409669757,fufi_imu_link,-0.0029519766089462535,-0.008109620179885006,0.02213781835064524,0.9997176785939679,0.0,0.0,0.0,0.0,0.0,0.0,0.0,0.0,0.0,0.021438736468553543,-0.009685552679002285,-0.006152577698230743,0.01,0.0,0.0,0.0,0.01,0.0,0.0,0.0,0.01,-0.05551177263259888,-0.3257274627685547,9.360604286193848,0.01,0.0,0.0,0.0,0.01,0.0,0.0,0.0,0.01
1648214424.4112709,17720,1648214424,410638120,fufi_imu_link,-0.0029744958969063116,-0.008087152511174905,0.022133404856112787,0.9997178915713653,0.0,0.0,0.0,0.0,0.0,0.0,0.0,0.0,0.0,0.0057795350439846516,-0.00433132890611887,-0.009758188389241695,0.01,0.0,0.0,0.0,0.01,0.0,0.0,0.0,0.01,0.056049834936857224,-0.149845689535141,9.25035285949707,0.01,0.0,0.0,0.0,0.01,0.0,0.0,0.0,0.01
1648214424.4300435,17721,1648214424,429289333,fufi_imu_link,-0.002972991302756664,-0.008139732529910085,0.022070955652846964,0.9997188499741442,0.0,0.0,0.0,0.0,0.0,0.0,0.0,0.0,0.0,-0.0023889171425253153,-0.003831951878964901,-0.0066655538976192474,0.01,0.0,0.0,0.0,0.01,0.0,0.0,0.0,0.01,0.21855202317237854,0.023997928947210312,9.592889785766602,0.01,0.0,0.0,0.0,0.01,0.0,0.0,0.0,0.01
1648214424.4384954,17722,1648214424,437865607,fufi_imu_link,-0.0029649591899368827,-0.008168152544943498,0.02202536052363335,0.9997196475986698,0.0,0.0,0.0,0.0,0.0,0.0,0.0,0.0,0.0,0.01394313108175993,-0.004111738409847021,-0.010852033272385597,0.01,0.0,0.0,0.0,0.01,0.0,0.0,0.0,0.01,0.1945658177137375,-0.2589527368545532,9.485450744628906,0.01,0.0,0.0,0.0,0.01,0.0,0.0,0.0,0.01
1648214424.485263,17723,1648214424,484536341,fufi_imu_link,-0.002919273220505794,-0.008385310540782105,0.02184812432665051,0.9997218732599613,0.0,0.0,0.0,0.0,0.0,0.0,0.0,0.0,0.0,-0.00012362244888208807,-0.004765699151903391,-0.0075804684311151505,0.01,0.0,0.0,0.0,0.01,0.0,0.0,0.0,0.01,0.5751123428344727,0.1040450781583786,9.741514205932617,0.01,0.0,0.0,0.0,0.01,0.0,0.0,0.0,0.01
1648214424.485873,17724,1648214424,485396420,fufi_imu_link,-0.0029020092191444666,-0.008527429533988318,0.021845447602485326,0.999720779871601,0.0,0.0,0.0,0.0,0.0,0.0,0.0,0.0,0.0,0.00713410833850503,-0.011479213833808899,-0.00505727156996727,0.01,0.0,0.0,0.0,0.01,0.0,0.0,0.0,0.01,0.7032714486122131,-0.017274528741836548,9.796401023864746,0.01,0.0,0.0,0.0,0.01,0.0,0.0,0.0,0.01
1648214424.5134552,17725,1648214424,512926796,fufi_imu_link,-0.00290175862439165,-0.008605291001170343,0.02190677327562773,0.9997187714794202,0.0,0.0,0.0,0.0,0.0,0.0,0.0,0.0,0.0,-0.0013076808536425233,0.004525333642959595,0.004524566233158112,0.01,0.0,0.0,0.0,0.01,0.0,0.0,0.0,0.01,0.7097654342651367,0.006079608574509621,9.713485717773438,0.01,0.0,0.0,0.0,0.01,0.0,0.0,0.0,0.01
1648214424.5511715,17726,1648214424,550570482,fufi_imu_link,-0.0030102961159159352,-0.00863099988106061,0.022236378280145123,0.999710951945276,0.0,0.0,0.0,0.0,0.0,0.0,0.0,0.0,0.0,-0.008136601187288761,0.0066846394911408424,0.017654478549957275,0.01,0.0,0.0,0.0,0.01,0.0,0.0,0.0,0.01,0.7357496023178101,0.1173325702548027,9.547743797302246,0.01,0.0,0.0,0.0,0.01,0.0,0.0,0.0,0.01
1648214424.5607967,17727,1648214424,560109164,fufi_imu_link,-0.0029694669739904773,-0.008798993733257878,0.022331154407102025,0.9997074969800009,0.0,0.0,0.0,0.0,0.0,0.0,0.0,0.0,0.0,0.0021633829455822706,-0.003117827931419015,0.020008379593491554,0.01,0.0,0.0,0.0,0.01,0.0,0.0,0.0,0.01,0.778353214263916,0.0459558442234993,9.846602439880371,0.01,0.0,0.0,0.0,0.01,0.0,0.0,0.0,0.01
1648214424.6262453,17728,1648214424,625368738,fufi_imu_link,-0.0032428578966977083,-0.008918048666759215,0.023013572285229874,0.9996901158715693,0.0,0.0,0.0,0.0,0.0,0.0,0.0,0.0,0.0,-0.008326203562319279,-0.0001957342028617859,0.021005555987358093,0.01,0.0,0.0,0.0,0.01,0.0,0.0,0.0,0.01,0.5964264273643494,-0.061187513172626495,9.772760391235352,0.01,0.0,0.0,0.0,0.01,0.0,0.0,0.0,0.01
1648214424.6438677,17729,1648214424,643149940,fufi_imu_link,-0.0032729603922055464,-0.008993247014911629,0.023175660793560683,0.9996855995687752,0.0,0.0,0.0,0.0,0.0,0.0,0.0,0.0,0.0,-0.0009541717590764165,0.001623652409762144,0.0182662270963192,0.01,0.0,0.0,0.0,0.01,0.0,0.0,0.0,0.01,0.5118258595466614,-0.1502104550600052,9.56661605834961,0.01,0.0,0.0,0.0,0.01,0.0,0.0,0.0,0.01
1648214424.6813593,17730,1648214424,680609784,fufi_imu_link,-0.0032703808260721853,-0.008973146368489717,0.02322848422198621,0.9996845626367605,0.0,0.0,0.0,0.0,0.0,0.0,0.0,0.0,0.0,0.0035872790031135082,0.002019435167312622,0.0027690641582012177,0.01,0.0,0.0,0.0,0.01,0.0,0.0,0.0,0.01,0.2377469539642334,-0.30800190567970276,9.528966903686523,0.01,0.0,0.0,0.0,0.01,0.0,0.0,0.0,0.01
1648214424.689945,17731,1648214424,689400725,fufi_imu_link,-0.0032835742793773676,-0.008909657740848334,0.023199614284549502,0.9996857576438413,0.0,0.0,0.0,0.0,0.0,0.0,0.0,0.0,0.0,0.006473762448877096,0.004663235507905483,-0.006730005145072937,0.01,0.0,0.0,0.0,0.01,0.0,0.0,0.0,0.01,0.0037434608675539494,-0.22034496068954468,9.548891067504883,0.01,0.0,0.0,0.0,0.01,0.0,0.0,0.0,0.01
1648214424.7008421,17732,1648214424,700143514,fufi_imu_link,-0.0033112641498855865,-0.008954802895870943,0.02315392247229034,0.9996863222576234,0.0,0.0,0.0,0.0,0.0,0.0,0.0,0.0,0.0,-0.00028309860499575734,-0.001353787025436759,-0.008530626073479652,0.01,0.0,0.0,0.0,0.01,0.0,0.0,0.0,0.01,0.31805410981178284,-0.17640094459056854,9.78109073638916,0.01,0.0,0.0,0.0,0.01,0.0,0.0,0.0,0.01
1648214424.7186313,17733,1648214424,717888663,fufi_imu_link,-0.003422924456328122,-0.008908438729622641,0.02303370243698751,0.9996891376120935,0.0,0.0,0.0,0.0,0.0,0.0,0.0,0.0,0.0,-0.0005245282081887126,0.0008901664987206459,-0.013669563457369804,0.01,0.0,0.0,0.0,0.01,0.0,0.0,0.0,0.01,0.010730690322816372,-0.46882861852645874,9.399291038513184,0.01,0.0,0.0,0.0,0.01,0.0,0.0,0.0,0.01
1648214424.7571692,17734,1648214424,755837868,fufi_imu_link,-0.003234035912136514,-0.008815365626433596,0.022684776548041363,0.9996985701968153,0.0,0.0,0.0,0.0,0.0,0.0,0.0,0.0,0.0,0.009710647165775299,-3.773905336856842e-05,-0.018497105687856674,0.01,0.0,0.0,0.0,0.01,0.0,0.0,0.0,0.01,-0.18381452560424805,-0.0536067858338356,9.871994018554688,0.01,0.0,0.0,0.0,0.01,0.0,0.0,0.0,0.01
1648214424.7641354,17735,1648214424,763548205,fufi_imu_link,-0.0032251687364677523,-0.008691239030771434,0.022610045925707558,0.9997013786496289,0.0,0.0,0.0,0.0,0.0,0.0,0.0,0.0,0.0,0.006395937874913216,0.0038305246271193027,-0.01956721767783165,0.01,0.0,0.0,0.0,0.01,0.0,0.0,0.0,0.01,-0.2568129897117615,-0.11975033581256866,9.758580207824707,0.01,0.0,0.0,0.0,0.01,0.0,0.0,0.0,0.01
1648214424.793619,17736,1648214424,793048304,fufi_imu_link,-0.0034759466578788627,-0.008612589320471513,0.022407441484231256,0.9997057805505374,0.0,0.0,0.0,0.0,0.0,0.0,0.0,0.0,0.0,-0.01793566718697548,0.0016933334991335869,-0.013586236163973808,0.01,0.0,0.0,0.0,0.01,0.0,0.0,0.0,0.01,-0.06693540513515472,-0.01782749779522419,9.812833786010742,0.01,0.0,0.0,0.0,0.01,0.0,0.0,0.0,0.01
1648214424.8198166,17737,1648214424,819547286,fufi_imu_link,-0.0034185770697487787,-0.008520792803226483,0.02235770251211657,0.9997078786121486,0.0,0.0,0.0,0.0,0.0,0.0,0.0,0.0,0.0,0.0024561539757996798,-0.001573552144691348,-0.003797050565481186,0.01,0.0,0.0,0.0,0.01,0.0,0.0,0.0,0.01,-0.2627871036529541,0.03160388022661209,9.551254272460938,0.01,0.0,0.0,0.0,0.01,0.0,0.0,0.0,0.01
1648214424.8383234,17738,1648214424,837960402,fufi_imu_link,-0.00334840728726944,-0.008406367921218065,0.022323596645851273,0.9997098469955197,0.0,0.0,0.0,0.0,0.0,0.0,0.0,0.0,0.0,0.008277676068246365,-0.0006672129966318607,-0.003829989582300186,0.01,0.0,0.0,0.0,0.01,0.0,0.0,0.0,0.01,-0.2938816547393799,-0.08197800815105438,9.554402351379395,0.01,0.0,0.0,0.0,0.01,0.0,0.0,0.0,0.01
1648214424.8763394,17739,1648214424,876012509,fufi_imu_link,-0.0033121268049806194,-0.008471637599610485,0.022299475028853846,0.9997099552299388,0.0,0.0,0.0,0.0,0.0,0.0,0.0,0.0,0.0,0.002207147190347314,-0.008196420036256313,-0.0013348590582609177,0.01,0.0,0.0,0.0,0.01,0.0,0.0,0.0,0.01,-0.18297407031059265,-0.09562744945287704,9.619279861450195,0.01,0.0,0.0,0.0,0.01,0.0,0.0,0.0,0.01
1648214424.9049258,17740,1648214424,904540956,fufi_imu_link,-0.003326009516905805,-0.008384933954219966,0.02233326175730954,0.9997098858981821,0.0,0.0,0.0,0.0,0.0,0.0,0.0,0.0,0.0,-0.00026795011945068836,-0.0007841433398425579,0.002339038997888565,0.01,0.0,0.0,0.0,0.01,0.0,0.0,0.0,0.01,-0.21475529670715332,-0.09717211127281189,9.578808784484863,0.01,0.0,0.0,0.0,0.01,0.0,0.0,0.0,0.01
1648214424.9130926,17741,1648214424,912772843,fufi_imu_link,-0.003278432486474046,-0.008354547148019153,0.02231935919730413,0.9997106079398204,0.0,0.0,0.0,0.0,0.0,0.0,0.0,0.0,0.0,0.01080288551747799,-0.007131289225071669,-0.0035378150641918182,0.01,0.0,0.0,0.0,0.01,0.0,0.0,0.0,0.01,-0.06533551216125488,-0.052466750144958496,9.589900970458984,0.01,0.0,0.0,0.0,0.01,0.0,0.0,0.0,0.01
1648214424.9603522,17742,1648214424,959696406,fufi_imu_link,-0.003299550468646143,-0.008624501542574211,0.02246819440752938,0.9997049120515077,0.0,0.0,0.0,0.0,0.0,0.0,0.0,0.0,0.0,-0.0024173592682927847,-0.011689119040966034,0.006337929517030716,0.01,0.0,0.0,0.0,0.01,0.0,0.0,0.0,0.01,0.14653806388378143,0.05026436224579811,9.524322509765625,0.01,0.0,0.0,0.0,0.01,0.0,0.0,0.0,0.01
1648214424.9800858,17743,1648214424,979276736,fufi_imu_link,-0.0032458961222161693,-0.008643531611253452,0.02246846249989236,0.9997049173193758,0.0,0.0,0.0,0.0,0.0,0.0,0.0,0.0,0.0,0.003594073699787259,-0.00286236684769392,-3.129243850708008e-07,0.01,0.0,0.0,0.0,0.01,0.0,0.0,0.0,0.01,0.13552343845367432,0.002867816248908639,9.654793739318848,0.01,0.0,0.0,0.0,0.01,0.0,0.0,0.0,0.01
1648214424.988536,17744,1648214424,987895382,fufi_imu_link,-0.0032373506005836613,-0.008660603712376386,0.02247972366524037,0.9997045441170909,0.0,0.0,0.0,0.0,0.0,0.0,0.0,0.0,0.0,-0.004707676358520985,0.0005333856679499149,0.002729266881942749,0.01,0.0,0.0,0.0,0.01,0.0,0.0,0.0,0.01,0.23864218592643738,0.04301224648952484,9.554469108581543,0.01,0.0,0.0,0.0,0.01,0.0,0.0,0.0,0.01
1648214425.035348,17745,1648214425,34633411,fufi_imu_link,-0.0032218092419284434,-0.008495296562258257,0.022380473552859423,0.9997082395804676,0.0,0.0,0.0,0.0,0.0,0.0,0.0,0.0,0.0,-0.00032279055449180305,0.004697723779827356,-0.004229601472616196,0.01,0.0,0.0,0.0,0.01,0.0,0.0,0.0,0.01,-0.04997504875063896,0.03340758755803108,9.535892486572266,0.01,0.0,0.0,0.0,0.01,0.0,0.0,0.0,0.01
1648214425.0360615,17746,1648214425,35498190,fufi_imu_link,-0.003173488573453649,-0.00846222915529316,0.02237816441178211,0.9997087262825891,0.0,0.0,0.0,0.0,0.0,0.0,0.0,0.0,0.0,0.0017848897259682417,0.00442732498049736,-0.0046618543565273285,0.01,0.0,0.0,0.0,0.01,0.0,0.0,0.0,0.01,0.04584818705916405,0.11903692036867142,9.534507751464844,0.01,0.0,0.0,0.0,0.01,0.0,0.0,0.0,0.01
1648214425.0633407,17747,1648214425,62642949,fufi_imu_link,-0.003207068066278531,-0.008433654671866476,0.022401599673810967,0.9997083357236493,0.0,0.0,0.0,0.0,0.0,0.0,0.0,0.0,0.0,-0.0029117551166564226,0.001900563482195139,0.0017611067742109299,0.01,0.0,0.0,0.0,0.01,0.0,0.0,0.0,0.01,0.14832597970962524,-0.03951621428132057,9.662880897521973,0.01,0.0,0.0,0.0,0.01,0.0,0.0,0.0,0.01
1648214425.1012948,17748,1648214425,100631670,fufi_imu_link,-0.003268295931030919,-0.008270776561039707,0.022635176334023305,0.9997042369066524,0.0,0.0,0.0,0.0,0.0,0.0,0.0,0.0,0.0,-0.004590255673974752,0.005666148383170366,0.012360500171780586,0.01,0.0,0.0,0.0,0.01,0.0,0.0,0.0,0.01,-0.0549638457596302,0.05357378348708153,9.453577041625977,0.01,0.0,0.0,0.0,0.01,0.0,0.0,0.0,0.01
1648214425.1108885,17749,1648214425,110291449,fufi_imu_link,-0.00339227551441208,-0.008169253093555831,0.02267268730838007,0.999703808645813,0.0,0.0,0.0,0.0,0.0,0.0,0.0,0.0,0.0,-0.012662249617278576,0.0005619465373456478,0.007696488872170448,0.01,0.0,0.0,0.0,0.01,0.0,0.0,0.0,0.01,-0.23183844983577728,-0.29780927300453186,9.569852828979492,0.01,0.0,0.0,0.0,0.01,0.0,0.0,0.0,0.01
1648214425.1763036,17750,1648214425,175566337,fufi_imu_link,-0.003649908088151434,-0.00832152746462749,0.022629119627062023,0.9997026324345193,0.0,0.0,0.0,0.0,0.0,0.0,0.0,0.0,0.0,-0.008054458536207676,-0.006560131907463074,-0.0012996885925531387,0.01,0.0,0.0,0.0,0.01,0.0,0.0,0.0,0.01,-0.10128962993621826,-0.06803370267152786,9.6143798828125,0.01,0.0,0.0,0.0,0.01,0.0,0.0,0.0,0.01
1648214425.1937811,17751,1648214425,193180547,fufi_imu_link,-0.0037326171570675284,-0.008339363697913892,0.02255874880322852,0.9997037688409031,0.0,0.0,0.0,0.0,0.0,0.0,0.0,0.0,0.0,-0.007403239607810974,-0.009848401881754398,-0.00801718421280384,0.01,0.0,0.0,0.0,0.01,0.0,0.0,0.0,0.01,-0.1134590283036232,-0.14643143117427826,9.63695240020752,0.01,0.0,0.0,0.0,0.01,0.0,0.0,0.0,0.01
1648214425.2313313,17752,1648214425,230785227,fufi_imu_link,-0.0036825195070679935,-0.00821676725501317,0.02235214186016107,0.9997096106071104,0.0,0.0,0.0,0.0,0.0,0.0,0.0,0.0,0.0,0.002874680794775486,0.003944738768041134,-0.011012439616024494,0.01,0.0,0.0,0.0,0.01,0.0,0.0,0.0,0.01,-0.027408715337514877,-0.08486084640026093,9.544347763061523,0.01,0.0,0.0,0.0,0.01,0.0,0.0,0.0,0.01
1648214425.2400558,17753,1648214425,239471259,fufi_imu_link,-0.003656926625883193,-0.00818265023637008,0.022294952201685866,0.9997112614295623,0.0,0.0,0.0,0.0,0.0,0.0,0.0,0.0,0.0,0.006066434551030397,0.0008665313944220543,-0.013247296214103699,0.01,0.0,0.0,0.0,0.01,0.0,0.0,0.0,0.01,0.04130404442548752,-0.07624148577451706,9.696723937988281,0.01,0.0,0.0,0.0,0.01,0.0,0.0,0.0,0.01
1648214425.251002,17754,1648214425,250373832,fufi_imu_link,-0.0036556162983527644,-0.008161222775875577,0.022232978135254346,0.999712821562032,0.0,0.0,0.0,0.0,0.0,0.0,0.0,0.0,0.0,-0.0005655427230522037,0.001000646036118269,-0.011369205079972744,0.01,0.0,0.0,0.0,0.01,0.0,0.0,0.0,0.01,0.09486085176467896,-0.05792733654379845,9.761390686035156,0.01,0.0,0.0,0.0,0.01,0.0,0.0,0.0,0.01
1648214425.2686825,17755,1648214425,267926536,fufi_imu_link,-0.003591768890333594,-0.008153328813715888,0.022125532451515516,0.9997155011498176,0.0,0.0,0.0,0.0,0.0,0.0,0.0,0.0,0.0,0.007282791659235954,-0.003007326740771532,-0.012332277372479439,0.01,0.0,0.0,0.0,0.01,0.0,0.0,0.0,0.01,0.02794167585670948,-0.07573836296796799,9.64211368560791,0.01,0.0,0.0,0.0,0.01,0.0,0.0,0.0,0.01
1648214425.3063347,17756,1648214425,305594557,fufi_imu_link,-0.0036404215795174193,-0.008231198475040755,0.021815810560451315,0.99972149377313,0.0,0.0,0.0,0.0,0.0,0.0,0.0,0.0,0.0,-0.00047858170000836253,-0.00384817598387599,-0.01647748053073883,0.01,0.0,0.0,0.0,0.01,0.0,0.0,0.0,0.01,0.17207202315330505,-0.2460518330335617,9.802009582519531,0.01,0.0,0.0,0.0,0.01,0.0,0.0,0.0,0.01
1648214425.3140268,17757,1648214425,313534124,fufi_imu_link,-0.0037200073561571537,-0.00825855131397309,0.021743761482042392,0.9997225448653624,0.0,0.0,0.0,0.0,0.0,0.0,0.0,0.0,0.0,-0.01022434700280428,-0.00020818738266825676,-0.0181276798248291,0.01,0.0,0.0,0.0,0.01,0.0,0.0,0.0,0.01,0.25535306334495544,-0.2326333224773407,9.777100563049316,0.01,0.0,0.0,0.0,0.01,0.0,0.0,0.0,0.01
1648214425.3433027,17758,1648214425,342701485,fufi_imu_link,-0.0037794593856088007,-0.008296963091627014,0.021422728090539463,0.9997289346674766,0.0,0.0,0.0,0.0,0.0,0.0,0.0,0.0,0.0,-0.00532500958070159,-0.000636235810816288,-0.021961836144328117,0.01,0.0,0.0,0.0,0.01,0.0,0.0,0.0,0.01,0.2557804584503174,-0.019247526302933693,9.468544006347656,0.01,0.0,0.0,0.0,0.01,0.0,0.0,0.0,0.01
1648214425.3716936,17759,1648214425,370948078,fufi_imu_link,-0.0036873804745212887,-0.008495185107999242,0.021228210361264432,0.9997317630945187,0.0,0.0,0.0,0.0,0.0,0.0,0.0,0.0,0.0,0.004878053441643715,-0.008635246194899082,-0.01381724700331688,0.01,0.0,0.0,0.0,0.01,0.0,0.0,0.0,0.01,0.46985936164855957,-0.008191041648387909,9.854002952575684,0.01,0.0,0.0,0.0,0.01,0.0,0.0,0.0,0.01
1648214425.3890095,17760,1648214425,388316716,fufi_imu_link,-0.003720262783979584,-0.00871021103543026,0.02116559520297991,0.9997311185755099,0.0,0.0,0.0,0.0,0.0,0.0,0.0,0.0,0.0,-0.0056929271668195724,-0.01234244555234909,-0.007147626951336861,0.01,0.0,0.0,0.0,0.01,0.0,0.0,0.0,0.01,0.5717677474021912,-0.03089042752981186,9.55091667175293,0.01,0.0,0.0,0.0,0.01,0.0,0.0,0.0,0.01
1648214425.4548452,17761,1648214425,454524295,fufi_imu_link,-0.00353850617887332,-0.009065559755914481,0.021331161413332175,0.9997251002916214,0.0,0.0,0.0,0.0,0.0,0.0,0.0,0.0,0.0,0.005516458302736282,-0.009007018059492111,0.0049266517162323,0.01,0.0,0.0,0.0,0.01,0.0,0.0,0.0,0.01,0.41343891620635986,-0.09975726157426834,9.722936630249023,0.01,0.0,0.0,0.0,0.01,0.0,0.0,0.0,0.01
1648214425.4630623,17762,1648214425,462793802,fufi_imu_link,-0.0035571737770688254,-0.009168796655442958,0.02136134744719005,0.9997234480184265,0.0,0.0,0.0,0.0,0.0,0.0,0.0,0.0,0.0,-0.006318541709333658,-0.014348726719617844,0.007362766191363335,0.01,0.0,0.0,0.0,0.01,0.0,0.0,0.0,0.01,0.34553515911102295,-0.05154862999916077,9.71906852722168,0.01,0.0,0.0,0.0,0.01,0.0,0.0,0.0,0.01
1648214425.5101328,17763,1648214425,509647150,fufi_imu_link,-0.0035759367273110946,-0.00895241233416134,0.021394983630933766,0.9997246229164076,0.0,0.0,0.0,0.0,0.0,0.0,0.0,0.0,0.0,-0.0009525567293167114,0.010909921489655972,0.0014935601502656937,0.01,0.0,0.0,0.0,0.01,0.0,0.0,0.0,0.01,0.31402167677879333,-0.03919362276792526,9.438533782958984,0.01,0.0,0.0,0.0,0.01,0.0,0.0,0.0,0.01
1648214425.5299351,17764,1648214425,529299117,fufi_imu_link,-0.0034931575225672935,-0.008931012882564088,0.021409072740725392,0.9997248053658548,0.0,0.0,0.0,0.0,0.0,0.0,0.0,0.0,0.0,0.007702088914811611,0.004746460821479559,0.0013997852802276611,0.01,0.0,0.0,0.0,0.01,0.0,0.0,0.0,0.01,0.27523189783096313,-0.041712984442710876,9.661001205444336,0.01,0.0,0.0,0.0,0.01,0.0,0.0,0.0,0.01
1648214425.538108,17765,1648214425,537711724,fufi_imu_link,-0.0034863414939657234,-0.00895593870216432,0.02142184071298158,0.9997243326664698,0.0,0.0,0.0,0.0,0.0,0.0,0.0,0.0,0.0,-0.0028368167113512754,0.0009927982464432716,0.0031303688883781433,0.01,0.0,0.0,0.0,0.01,0.0,0.0,0.0,0.01,0.28569716215133667,-0.0005644347984343767,9.709275245666504,0.01,0.0,0.0,0.0,0.01,0.0,0.0,0.0,0.01
1648214425.5856981,17766,1648214425,584621981,fufi_imu_link,-0.003464169353557425,-0.008888102513701352,0.021573999764160492,0.9997217431358447,0.0,0.0,0.0,0.0,0.0,0.0,0.0,0.0,0.0,-0.000632515992037952,0.004188840277493,0.006529299542307854,0.01,0.0,0.0,0.0,0.01,0.0,0.0,0.0,0.01,0.28744837641716003,0.0814073383808136,9.531837463378906,0.01,0.0,0.0,0.0,0.01,0.0,0.0,0.0,0.01
1648214425.5866258,17767,1648214425,585547629,fufi_imu_link,-0.003449271272535237,-0.008891947623238474,0.021577649610952328,0.9997216816856684,0.0,0.0,0.0,0.0,0.0,0.0,0.0,0.0,0.0,-0.0044343601912260056,0.004617559257894754,0.00831494852900505,0.01,0.0,0.0,0.0,0.01,0.0,0.0,0.0,0.01,0.19046051800251007,-0.00524383457377553,9.453097343444824,0.01,0.0,0.0,0.0,0.01,0.0,0.0,0.0,0.01
1648214425.6139205,17768,1648214425,612819245,fufi_imu_link,-0.003582215558536569,-0.008837686069580249,0.02171156839007221,0.9997187958794569,0.0,0.0,0.0,0.0,0.0,0.0,0.0,0.0,0.0,-0.008878207765519619,0.001498738769441843,0.009891446679830551,0.01,0.0,0.0,0.0,0.01,0.0,0.0,0.0,0.01,0.030318008735775948,-0.11039181798696518,9.747542381286621,0.01,0.0,0.0,0.0,0.01,0.0,0.0,0.0,0.01
1648214425.6413236,17769,1648214425,640575030,fufi_imu_link,-0.0036996763954174573,-0.008823148172147889,0.021783987108838013,0.9997169211114432,0.0,0.0,0.0,0.0,0.0,0.0,0.0,0.0,0.0,-0.008774158544838428,-0.0015443121083080769,0.005283845588564873,0.01,0.0,0.0,0.0,0.01,0.0,0.0,0.0,0.01,0.021332763135433197,-0.053553953766822815,9.433493614196777,0.01,0.0,0.0,0.0,0.01,0.0,0.0,0.0,0.01
1648214425.6611166,17770,1648214425,659465322,fufi_imu_link,-0.0036546318117406363,-0.00879848688647365,0.02180077349445032,0.9997169382229516,0.0,0.0,0.0,0.0,0.0,0.0,0.0,0.0,0.0,0.006565268617123365,-0.0011141621507704258,0.0016862079501152039,0.01,0.0,0.0,0.0,0.01,0.0,0.0,0.0,0.01,0.03651650249958038,-0.134596049785614,9.493178367614746,0.01,0.0,0.0,0.0,0.01,0.0,0.0,0.0,0.01
1648214425.6611245,17771,1648214425,660339797,fufi_imu_link,-0.00364039148471395,-0.008714561539058937,0.021801398046026654,0.9997177116617765,0.0,0.0,0.0,0.0,0.0,0.0,0.0,0.0,0.0,-0.0030320005025714636,-0.0003398456610739231,0.0010246839374303818,0.01,0.0,0.0,0.0,0.01,0.0,0.0,0.0,0.01,-0.151457741856575,-0.006916722282767296,9.426583290100098,0.01,0.0,0.0,0.0,0.01,0.0,0.0,0.0,0.01
1648214425.7267284,17772,1648214425,725603997,fufi_imu_link,-0.0036455109669610132,-0.008820607246534783,0.02180548512689232,0.9997166738411304,0.0,0.0,0.0,0.0,0.0,0.0,0.0,0.0,0.0,0.001246018335223198,-0.004069671966135502,8.353963494300842e-05,0.01,0.0,0.0,0.0,0.01,0.0,0.0,0.0,0.01,0.0663280263543129,-0.2623298466205597,9.784113883972168,0.01,0.0,0.0,0.0,0.01,0.0,0.0,0.0,0.01
1648214425.7356348,17773,1648214425,735042704,fufi_imu_link,-0.003680771705768307,-0.008785318546712684,0.021819962318369503,0.9997165394961254,0.0,0.0,0.0,0.0,0.0,0.0,0.0,0.0,0.0,-0.0037314246874302626,0.003974610008299351,0.0030704867094755173,0.01,0.0,0.0,0.0,0.01,0.0,0.0,0.0,0.01,0.09665002673864365,-0.1320682018995285,9.16470718383789,0.01,0.0,0.0,0.0,0.01,0.0,0.0,0.0,0.01
1648214425.781599,17774,1648214425,780896018,fufi_imu_link,-0.003807071629234288,-0.00895866600806389,0.021787373335576517,0.9997152388916066,0.0,0.0,0.0,0.0,0.0,0.0,0.0,0.0,0.0,-0.0049441191367805,-0.006331341806799173,-0.0014035794883966446,0.01,0.0,0.0,0.0,0.01,0.0,0.0,0.0,0.01,0.2719322144985199,-0.14437085390090942,9.775736808776855,0.01,0.0,0.0,0.0,0.01,0.0,0.0,0.0,0.01
1648214425.8012114,17775,1648214425,800307574,fufi_imu_link,-0.0037887578925681928,-0.009122092973139267,0.021792407686142126,0.9997137208724616,0.0,0.0,0.0,0.0,0.0,0.0,0.0,0.0,0.0,0.0010422143386676908,-0.0143895223736763,0.000469449907541275,0.01,0.0,0.0,0.0,0.01,0.0,0.0,0.0,0.01,0.2661112844944,-0.05874846130609512,9.608650207519531,0.01,0.0,0.0,0.0,0.01,0.0,0.0,0.0,0.01
1648214425.8187041,17776,1648214425,818012447,fufi_imu_link,-0.0038489238652354616,-0.00919184371261755,0.02177656121093256,0.999713197460186,0.0,0.0,0.0,0.0,0.0,0.0,0.0,0.0,0.0,-0.007798007223755121,-0.007831868715584278,-0.0017422083765268326,0.01,0.0,0.0,0.0,0.01,0.0,0.0,0.0,0.01,0.1653507649898529,-0.04845258593559265,9.274033546447754,0.01,0.0,0.0,0.0,0.01,0.0,0.0,0.0,0.01
1648214425.8642797,17777,1648214425,863589856,fufi_imu_link,-0.003907096670163793,-0.009089712364103294,0.021803966051087597,0.9997133082985297,0.0,0.0,0.0,0.0,0.0,0.0,0.0,0.0,0.0,-0.0028124689124524593,0.005119341425597668,0.0012543052434921265,0.01,0.0,0.0,0.0,0.01,0.0,0.0,0.0,0.01,0.22535265982151031,-0.046920858323574066,9.654101371765137,0.01,0.0,0.0,0.0,0.01,0.0,0.0,0.0,0.01
1648214425.893862,17778,1648214425,892828318,fufi_imu_link,-0.004045848912822336,-0.009123705570239539,0.021816792247637242,0.9997121669156906,0.0,0.0,0.0,0.0,0.0,0.0,0.0,0.0,0.0,-0.009685422293841839,-0.0022993143647909164,0.0009572841227054596,0.01,0.0,0.0,0.0,0.01,0.0,0.0,0.0,0.01,0.16110306978225708,-0.07180079817771912,9.456737518310547,0.01,0.0,0.0,0.0,0.01,0.0,0.0,0.0,0.01
1648214425.9207182,17779,1648214425,919968859,fufi_imu_link,-0.0039994987163797634,-0.009062664068477234,0.021760437160539384,0.999714136893433,0.0,0.0,0.0,0.0,0.0,0.0,0.0,0.0,0.0,0.0036771842278540134,0.007076204754412174,-0.00414915569126606,0.01,0.0,0.0,0.0,0.01,0.0,0.0,0.0,0.01,0.3101713955402374,-0.09135419130325317,9.633994102478027,0.01,0.0,0.0,0.0,0.01,0.0,0.0,0.0,0.01
1648214425.9391356,17780,1648214425,938418481,fufi_imu_link,-0.004036876426528404,-0.009021989557095104,0.021724154792830658,0.9997151436442712,0.0,0.0,0.0,0.0,0.0,0.0,0.0,0.0,0.0,-0.0022996265906840563,0.0050552766770124435,-0.0039057228714227676,0.01,0.0,0.0,0.0,0.01,0.0,0.0,0.0,0.01,0.19054251909255981,-0.14079131186008453,9.59450912475586,0.01,0.0,0.0,0.0,0.01,0.0,0.0,0.0,0.01
1648214426.005182,17781,1648214426,4608702,fufi_imu_link,-0.0038112981674717477,-0.009287529941687087,0.02176544122305909,0.9997126994102988,0.0,0.0,0.0,0.0,0.0,0.0,0.0,0.0,0.0,0.005969170015305281,-0.007823723368346691,0.0011701323091983795,0.01,0.0,0.0,0.0,0.01,0.0,0.0,0.0,0.01,0.22399617731571198,0.009290185756981373,9.723087310791016,0.01,0.0,0.0,0.0,0.01,0.0,0.0,0.0,0.01
1648214426.0134609,17782,1648214426,12945400,fufi_imu_link,-0.0038123605472095406,-0.009311974946725234,0.021766471341684916,0.9997124455337051,0.0,0.0,0.0,0.0,0.0,0.0,0.0,0.0,0.0,-0.0015204543014988303,-0.003984376788139343,0.0002644602209329605,0.01,0.0,0.0,0.0,0.01,0.0,0.0,0.0,0.01,0.21154335141181946,-0.06019769608974457,9.808523178100586,0.01,0.0,0.0,0.0,0.01,0.0,0.0,0.0,0.01
1648214426.0513031,17783,1648214426,50949761,fufi_imu_link,-0.00363039215486528,-0.009152671551846877,0.021651998203834216,0.9997170798931301,0.0,0.0,0.0,0.0,0.0,0.0,0.0,0.0,0.0,0.010447521694004536,0.007660326547920704,-0.0061028823256492615,0.01,0.0,0.0,0.0,0.01,0.0,0.0,0.0,0.01,0.13267382979393005,-0.1253841519355774,9.422439575195312,0.01,0.0,0.0,0.0,0.01,0.0,0.0,0.0,0.01
1648214426.0796669,17784,1648214426,79301384,fufi_imu_link,-0.003484149964087469,-0.009130916744330822,0.021502507000062777,0.9997210257122475,0.0,0.0,0.0,0.0,0.0,0.0,0.0,0.0,0.0,0.012577959336340427,0.002013691235333681,-0.010674618184566498,0.01,0.0,0.0,0.0,0.01,0.0,0.0,0.0,0.01,0.21744315326213837,-0.20397073030471802,9.951763153076172,0.01,0.0,0.0,0.0,0.01,0.0,0.0,0.0,0.01
1648214426.08797,17785,1648214426,87625629,fufi_imu_link,-0.0034725024133412234,-0.009163737793028539,0.021460734065964705,0.9997216635294045,0.0,0.0,0.0,0.0,0.0,0.0,0.0,0.0,0.0,0.005935315042734146,-0.007381906732916832,-0.010147769004106522,0.01,0.0,0.0,0.0,0.01,0.0,0.0,0.0,0.01,0.18687519431114197,-0.12724430859088898,9.810901641845703,0.01,0.0,0.0,0.0,0.01,0.0,0.0,0.0,0.01
1648214426.106535,17786,1648214426,106204555,fufi_imu_link,-0.003455025904068221,-0.009243003809963946,0.021383783969152737,0.9997226432664871,0.0,0.0,0.0,0.0,0.0,0.0,0.0,0.0,0.0,-0.0002423419791739434,-0.009712941944599152,-0.008304957300424576,0.01,0.0,0.0,0.0,0.01,0.0,0.0,0.0,0.01,0.1338425576686859,-0.003917725756764412,9.558395385742188,0.01,0.0,0.0,0.0,0.01,0.0,0.0,0.0,0.01
1648214426.1350791,17787,1648214426,134598609,fufi_imu_link,-0.003393198551412154,-0.00919243493712424,0.021294582494141335,0.9997252252993908,0.0,0.0,0.0,0.0,0.0,0.0,0.0,0.0,0.0,0.0038582750130444765,0.002827872522175312,-0.0063086021691560745,0.01,0.0,0.0,0.0,0.01,0.0,0.0,0.0,0.01,0.13845950365066528,-0.04081825166940689,9.555997848510742,0.01,0.0,0.0,0.0,0.01,0.0,0.0,0.0,0.01
1648214426.1357324,17788,1648214426,135257822,fufi_imu_link,-0.0033760307082308086,-0.009214501327172815,0.021292362056458593,0.999725127572577,0.0,0.0,0.0,0.0,0.0,0.0,0.0,0.0,0.0,0.005270234774798155,0.0076432302594184875,-0.006065173074603081,0.01,0.0,0.0,0.0,0.01,0.0,0.0,0.0,0.01,0.27246540784835815,-0.011552015319466591,9.656785011291504,0.01,0.0,0.0,0.0,0.01,0.0,0.0,0.0,0.01
1648214426.1551278,17789,1648214426,154198776,fufi_imu_link,-0.00325894074491035,-0.00918528177477073,0.02128209377816298,0.9997260036571805,0.0,0.0,0.0,0.0,0.0,0.0,0.0,0.0,0.0,0.01014237105846405,0.0035424684174358845,-0.0011428706347942352,0.01,0.0,0.0,0.0,0.01,0.0,0.0,0.0,0.01,0.20135387778282166,0.016026290133595467,9.619060516357422,0.01,0.0,0.0,0.0,0.01,0.0,0.0,0.0,0.01
1648214426.1633341,17790,1648214426,162769383,fufi_imu_link,-0.0032077672997520073,-0.009199735434321414,0.021276511215635733,0.9997261550881722,0.0,0.0,0.0,0.0,0.0,0.0,0.0,0.0,0.0,0.007321720477193594,-0.0016452972777187824,-0.0013275370001792908,0.01,0.0,0.0,0.0,0.01,0.0,0.0,0.0,0.01,0.20859356224536896,0.008947339840233326,9.642261505126953,0.01,0.0,0.0,0.0,0.01,0.0,0.0,0.0,0.01
1648214426.2100353,17791,1648214426,209408515,fufi_imu_link,-0.0032392147075616896,-0.00920931141029694,0.021397667035433346,0.9997233796990382,0.0,0.0,0.0,0.0,0.0,0.0,0.0,0.0,0.0,-0.0019588100258260965,-0.0014669215306639671,0.0052122194319963455,0.01,0.0,0.0,0.0,0.01,0.0,0.0,0.0,0.01,0.08049067109823227,-0.008107509464025497,9.61540699005127,0.01,0.0,0.0,0.0,0.01,0.0,0.0,0.0,0.01
1648214426.2112005,17792,1648214426,210440230,fufi_imu_link,-0.003213618339069259,-0.009206440485405462,0.021399729986868097,0.9997234445921775,0.0,0.0,0.0,0.0,0.0,0.0,0.0,0.0,0.0,0.002579646185040474,-0.00240352563560009,0.004371447488665581,0.01,0.0,0.0,0.0,0.01,0.0,0.0,0.0,0.01,0.1621307134628296,0.02759602852165699,9.617486000061035,0.01,0.0,0.0,0.0,0.01,0.0,0.0,0.0,0.01
1648214426.2763264,17793,1648214426,275554899,fufi_imu_link,-0.0031216117602724,-0.009229633662580753,0.02177921646541856,0.9997153270469674,0.0,0.0,0.0,0.0,0.0,0.0,0.0,0.0,0.0,0.0022026647347956896,0.00016420846804976463,0.011649386957287788,0.01,0.0,0.0,0.0,0.01,0.0,0.0,0.0,0.01,0.28779393434524536,0.024200255051255226,9.287259101867676,0.01,0.0,0.0,0.0,0.01,0.0,0.0,0.0,0.01
1648214426.2857094,17794,1648214426,285122895,fufi_imu_link,-0.0031855180230534763,-0.009285322512375037,0.021852097284687115,0.9997130193735734,0.0,0.0,0.0,0.0,0.0,0.0,0.0,0.0,0.0,-0.009959927760064602,0.0012097563594579697,0.015347542241215706,0.01,0.0,0.0,0.0,0.01,0.0,0.0,0.0,0.01,0.40533092617988586,-0.12855012714862823,9.545717239379883,0.01,0.0,0.0,0.0,0.01,0.0,0.0,0.0,0.01
1648214426.332034,17795,1648214426,330833389,fufi_imu_link,-0.0028227236598595993,-0.009547058475281651,0.021987436676723277,0.9997086768324044,0.0,0.0,0.0,0.0,0.0,0.0,0.0,0.0,0.0,0.01820237934589386,-0.00884290412068367,0.005711967125535011,0.01,0.0,0.0,0.0,0.01,0.0,0.0,0.0,0.01,0.4458688199520111,-0.2818429470062256,9.681914329528809,0.01,0.0,0.0,0.0,0.01,0.0,0.0,0.0,0.01
1648214426.3509989,17796,1648214426,350322860,fufi_imu_link,-0.0027889107335747148,-0.009649939120450738,0.021891850618320552,0.9997098816798786,0.0,0.0,0.0,0.0,0.0,0.0,0.0,0.0,0.0,0.009630178101360798,-0.0015774753410369158,-0.009941061027348042,0.01,0.0,0.0,0.0,0.01,0.0,0.0,0.0,0.01,0.511614203453064,-0.2942878007888794,9.43132495880127,0.01,0.0,0.0,0.0,0.01,0.0,0.0,0.0,0.01
1648214426.3685832,17797,1648214426,367979770,fufi_imu_link,-0.002771824748922323,-0.009752948031771142,0.02172808876514242,0.9997125022479538,0.0,0.0,0.0,0.0,0.0,0.0,0.0,0.0,0.0,0.006518777925521135,-0.0004947474226355553,-0.01863163337111473,0.01,0.0,0.0,0.0,0.01,0.0,0.0,0.0,0.01,0.5562644004821777,-0.22400948405265808,9.481510162353516,0.01,0.0,0.0,0.0,0.01,0.0,0.0,0.0,0.01
1648214426.4064949,17798,1648214426,405708393,fufi_imu_link,-0.0026705486506631323,-0.00989879043392984,0.021348491519868115,0.9997195226800744,0.0,0.0,0.0,0.0,0.0,0.0,0.0,0.0,0.0,0.003970643971115351,-0.0021096111740916967,-0.020145121961832047,0.01,0.0,0.0,0.0,0.01,0.0,0.0,0.0,0.01,0.6132688522338867,0.01991228014230728,9.831092834472656,0.01,0.0,0.0,0.0,0.01,0.0,0.0,0.0,0.01
1648214426.4144173,17799,1648214426,413602014,fufi_imu_link,-0.002640199318560964,-0.010026688948819676,0.02127059663976105,0.9997199890843789,0.0,0.0,0.0,0.0,0.0,0.0,0.0,0.0,0.0,0.002424471313133836,-0.004909787327051163,-0.019650839269161224,0.01,0.0,0.0,0.0,0.01,0.0,0.0,0.0,0.01,0.612658679485321,0.011449732817709446,9.667166709899902,0.01,0.0,0.0,0.0,0.01,0.0,0.0,0.0,0.01
1648214426.443434,17800,1648214426,442745467,fufi_imu_link,-0.0024611732959977325,-0.010302081504769897,0.021132287014209224,0.9997205790560807,0.0,0.0,0.0,0.0,0.0,0.0,0.0,0.0,0.0,0.010213675908744335,-0.010578136891126633,-0.009583843871951103,0.01,0.0,0.0,0.0,0.01,0.0,0.0,0.0,0.01,0.6795664429664612,0.03664397448301315,9.678971290588379,0.01,0.0,0.0,0.0,0.01,0.0,0.0,0.0,0.01
1648214426.4712806,17801,1648214426,470568898,fufi_imu_link,-0.0024350062135148824,-0.01030779778195844,0.02113244063047897,0.9997205809638139,0.0,0.0,0.0,0.0,0.0,0.0,0.0,0.0,0.0,0.0015596109442412853,0.0024264096282422543,1.2388452887535095e-05,0.01,0.0,0.0,0.0,0.01,0.0,0.0,0.0,0.01,0.34456491470336914,-0.033792510628700256,9.451881408691406,0.01,0.0,0.0,0.0,0.01,0.0,0.0,0.0,0.01
1648214426.4905486,17802,1648214426,488474249,fufi_imu_link,-0.002336054787747518,-0.01033644097901579,0.021126005604233063,0.9997206573454036,0.0,0.0,0.0,0.0,0.0,0.0,0.0,0.0,0.0,0.008051404729485512,0.0007228832691907883,-0.0007588062435388565,0.01,0.0,0.0,0.0,0.01,0.0,0.0,0.0,0.01,0.34237879514694214,0.051438361406326294,9.676247596740723,0.01,0.0,0.0,0.0,0.01,0.0,0.0,0.0,0.01
1648214426.5179648,17803,1648214426,517544851,fufi_imu_link,-0.002239268426106255,-0.010407388893360608,0.02116020638482507,0.9997194194368187,0.0,0.0,0.0,0.0,0.0,0.0,0.0,0.0,0.0,0.0046802121214568615,-0.00417684018611908,0.0023172982037067413,0.01,0.0,0.0,0.0,0.01,0.0,0.0,0.0,0.01,0.24324610829353333,0.05754151567816734,9.487412452697754,0.01,0.0,0.0,0.0,0.01,0.0,0.0,0.0,0.01
1648214426.526789,17804,1648214426,526353623,fufi_imu_link,-0.0022662292294855523,-0.010453214678329431,0.021194389634475046,0.9997181564601048,0.0,0.0,0.0,0.0,0.0,0.0,0.0,0.0,0.0,0.0003101910697296262,-0.00975723285228014,0.007671713829040527,0.01,0.0,0.0,0.0,0.01,0.0,0.0,0.0,0.01,0.2075478434562683,-0.1574552357196808,9.543447494506836,0.01,0.0,0.0,0.0,0.01,0.0,0.0,0.0,0.01
1648214426.554964,17805,1648214426,554642327,fufi_imu_link,-0.0022347533693001923,-0.010345112504480801,0.02136318494991225,0.9997157590302576,0.0,0.0,0.0,0.0,0.0,0.0,0.0,0.0,0.0,0.0035160123370587826,0.0014231991954147816,0.01187688484787941,0.01,0.0,0.0,0.0,0.01,0.0,0.0,0.0,0.01,-0.13458150625228882,-0.1016388088464737,9.621060371398926,0.01,0.0,0.0,0.0,0.01,0.0,0.0,0.0,0.01
1648214426.5633717,17806,1648214426,562957586,fufi_imu_link,-0.0022096833836808484,-0.010325388686343445,0.02138309871562174,0.9997155929248767,0.0,0.0,0.0,0.0,0.0,0.0,0.0,0.0,0.0,0.0005149001954123378,-0.0049441722221672535,0.00480729341506958,0.01,0.0,0.0,0.0,0.01,0.0,0.0,0.0,0.01,0.04610922560095787,0.04377773776650429,9.698257446289062,0.01,0.0,0.0,0.0,0.01,0.0,0.0,0.0,0.01
1648214426.6011627,17807,1648214426,600920537,fufi_imu_link,-0.0022593959926207924,-0.010518976492286466,0.021544560968818485,0.9997099970271199,0.0,0.0,0.0,0.0,0.0,0.0,0.0,0.0,0.0,-0.0010104553075507283,-0.013296467252075672,0.008463213220238686,0.01,0.0,0.0,0.0,0.01,0.0,0.0,0.0,0.01,-0.027092307806015015,-0.17826281487941742,9.844795227050781,0.01,0.0,0.0,0.0,0.01,0.0,0.0,0.0,0.01
1648214426.629606,17808,1648214426,629312426,fufi_imu_link,-0.002381080799196989,-0.010523233719052446,0.02165462278723874,0.9997072918200929,0.0,0.0,0.0,0.0,0.0,0.0,0.0,0.0,0.0,-0.006747874431312084,-0.004441099241375923,0.0077858734875917435,0.01,0.0,0.0,0.0,0.01,0.0,0.0,0.0,0.01,-0.03302231431007385,-0.14666643738746643,9.721427917480469,0.01,0.0,0.0,0.0,0.01,0.0,0.0,0.0,0.01
1648214426.6379907,17809,1648214426,637704170,fufi_imu_link,-0.002396166690985874,-0.010483388668285201,0.02171097742401375,0.9997064521180768,0.0,0.0,0.0,0.0,0.0,0.0,0.0,0.0,0.0,-0.0016834918642416596,-0.0001264684833586216,0.013408556580543518,0.01,0.0,0.0,0.0,0.01,0.0,0.0,0.0,0.01,0.045757606625556946,-0.07620285451412201,9.695637702941895,0.01,0.0,0.0,0.0,0.01,0.0,0.0,0.0,0.01
1648214426.6851923,17810,1648214426,684692961,fufi_imu_link,-0.002275406059650492,-0.010489857096258444,0.022083515686132912,0.999698506430966,0.0,0.0,0.0,0.0,0.0,0.0,0.0,0.0,0.0,0.006908060051500797,-0.0037729311734437943,0.01575385592877865,0.01,0.0,0.0,0.0,0.01,0.0,0.0,0.0,0.01,-0.09859496355056763,-0.1899765431880951,9.46877670288086,0.01,0.0,0.0,0.0,0.01,0.0,0.0,0.0,0.01
1648214426.6853573,17811,1648214426,685058901,fufi_imu_link,-0.002273770689387571,-0.010414086602833873,0.02208605116490734,0.9996992463291257,0.0,0.0,0.0,0.0,0.0,0.0,0.0,0.0,0.0,-0.004024286288768053,-0.0022207731381058693,0.012990888208150864,0.01,0.0,0.0,0.0,0.01,0.0,0.0,0.0,0.01,-0.09276279807090759,-0.032805681228637695,9.688545227050781,0.01,0.0,0.0,0.0,0.01,0.0,0.0,0.0,0.01
1648214426.7047749,17812,1648214426,704310161,fufi_imu_link,-0.002177275577510191,-0.010541437024121263,0.022251494981969617,0.9996944575957163,0.0,0.0,0.0,0.0,0.0,0.0,0.0,0.0,0.0,0.006082812789827585,-0.014372474513947964,0.017134616151452065,0.01,0.0,0.0,0.0,0.01,0.0,0.0,0.0,0.01,0.1741844117641449,0.09726844727993011,9.889811515808105,0.01,0.0,0.0,0.0,0.01,0.0,0.0,0.0,0.01
1648214426.7141397,17813,1648214426,713375559,fufi_imu_link,-0.0022315168571231383,-0.010575098076072582,0.02232669567634429,0.9996923058088294,0.0,0.0,0.0,0.0,0.0,0.0,0.0,0.0,0.0,-0.007510711904615164,-0.011518128216266632,0.016591714695096016,0.01,0.0,0.0,0.0,0.01,0.0,0.0,0.0,0.01,0.12594875693321228,-0.12310473620891571,9.503204345703125,0.01,0.0,0.0,0.0,0.01,0.0,0.0,0.0,0.01
1648214426.759941,17814,1648214426,759435865,fufi_imu_link,-0.00209970001118631,-0.010545610987917278,0.02229389328517626,0.9996936349056864,0.0,0.0,0.0,0.0,0.0,0.0,0.0,0.0,0.0,0.006751245353370905,0.004130878485739231,-0.0014899112284183502,0.01,0.0,0.0,0.0,0.01,0.0,0.0,0.0,0.01,0.46345606446266174,-0.13424481451511383,9.594921112060547,0.01,0.0,0.0,0.0,0.01,0.0,0.0,0.0,0.01
1648214426.7608967,17815,1648214426,760346593,fufi_imu_link,-0.0021247242583113876,-0.01060353730830759,0.022290284429925557,0.9996930497724842,0.0,0.0,0.0,0.0,0.0,0.0,0.0,0.0,0.0,-0.012301761656999588,0.0010023880749940872,-0.007944770157337189,0.01,0.0,0.0,0.0,0.01,0.0,0.0,0.0,0.01,0.4400196075439453,-0.1294640153646469,9.967483520507812,0.01,0.0,0.0,0.0,0.01,0.0,0.0,0.0,0.01
1648214426.8257048,17816,1648214426,825381934,fufi_imu_link,-0.0019206400784923,-0.011209176758799226,0.02149372050619292,0.9997042990189052,0.0,0.0,0.0,0.0,0.0,0.0,0.0,0.0,0.0,0.0049521722830832005,-0.005510600283741951,-0.024528922513127327,0.01,0.0,0.0,0.0,0.01,0.0,0.0,0.0,0.01,1.9204235076904297,0.04248090833425522,9.812143325805664,0.01,0.0,0.0,0.0,0.01,0.0,0.0,0.0,0.01
1648214426.8350656,17817,1648214426,834662854,fufi_imu_link,-0.0019828937832176226,-0.011661786072362687,0.021376908194878405,0.9997015047872414,0.0,0.0,0.0,0.0,0.0,0.0,0.0,0.0,0.0,-0.004449744243174791,0.004924888256937265,-0.02499895915389061,0.01,0.0,0.0,0.0,0.01,0.0,0.0,0.0,0.01,2.0458858013153076,-0.2449299395084381,9.49889087677002,0.01,0.0,0.0,0.0,0.01,0.0,0.0,0.0,0.01
1648214426.8707635,17818,1648214426,870425107,fufi_imu_link,-0.001955881215975358,-0.012129842280710155,0.021278523257273453,0.9996980873758355,0.0,0.0,0.0,0.0,0.0,0.0,0.0,0.0,0.0,0.0013232309138402343,-0.0007463628426194191,-0.005463184788823128,0.01,0.0,0.0,0.0,0.01,0.0,0.0,0.0,0.01,1.970516562461853,-0.07161283493041992,9.452856063842773,0.01,0.0,0.0,0.0,0.01,0.0,0.0,0.0,0.01
1648214426.9005468,17819,1648214426,900099697,fufi_imu_link,-0.0019104548892187108,-0.012246550043077436,0.02142741445872979,0.9996935720928551,0.0,0.0,0.0,0.0,0.0,0.0,0.0,0.0,0.0,0.0037092617712914944,0.014631623402237892,0.010068047791719437,0.01,0.0,0.0,0.0,0.01,0.0,0.0,0.0,0.01,1.5230953693389893,-0.08144451677799225,9.567380905151367,0.01,0.0,0.0,0.0,0.01,0.0,0.0,0.0,0.01
1648214426.9185672,17820,1648214426,917967398,fufi_imu_link,-0.0019583752556842286,-0.012393967102128122,0.02154226261578097,0.9996891943335299,0.0,0.0,0.0,0.0,0.0,0.0,0.0,0.0,0.0,-0.004997430834919214,0.01570938341319561,0.013023599982261658,0.01,0.0,0.0,0.0,0.01,0.0,0.0,0.0,0.01,1.3499304056167603,-0.0625283345580101,9.650833129882812,0.01,0.0,0.0,0.0,0.01,0.0,0.0,0.0,0.01
1648214426.9560268,17821,1648214426,955396326,fufi_imu_link,-0.0018957468985096463,-0.012428885417635593,0.021616063636716074,0.9996872884776646,0.0,0.0,0.0,0.0,0.0,0.0,0.0,0.0,0.0,0.0025846424978226423,0.003086112905293703,0.003940491005778313,0.01,0.0,0.0,0.0,0.01,0.0,0.0,0.0,0.01,0.5990047454833984,0.013551912270486355,9.60901927947998,0.01,0.0,0.0,0.0,0.01,0.0,0.0,0.0,0.01
1648214426.9648373,17822,1648214426,964223658,fufi_imu_link,-0.0018913716439215714,-0.012468750618317573,0.021623491423282442,0.9996866396976556,0.0,0.0,0.0,0.0,0.0,0.0,0.0,0.0,0.0,-0.0016244989819824696,0.00420781085267663,0.001774059608578682,0.01,0.0,0.0,0.0,0.01,0.0,0.0,0.0,0.01,0.4587485194206238,-0.00027185864746570587,9.519954681396484,0.01,0.0,0.0,0.0,0.01,0.0,0.0,0.0,0.01
1648214426.9754488,17823,1648214426,974935765,fufi_imu_link,-0.0018706284045299504,-0.012468214360213137,0.021602828592593302,0.9996871321452723,0.0,0.0,0.0,0.0,0.0,0.0,0.0,0.0,0.0,0.0035309751983731985,0.007030391599982977,-0.003869263455271721,0.01,0.0,0.0,0.0,0.01,0.0,0.0,0.0,0.01,0.38389259576797485,-0.03520578891038895,9.644121170043945,0.01,0.0,0.0,0.0,0.01,0.0,0.0,0.0,0.01
1648214426.9931023,17824,1648214426,992717389,fufi_imu_link,-0.0019209846414222178,-0.012395960121737201,0.021554073084799435,0.9996889875977043,0.0,0.0,0.0,0.0,0.0,0.0,0.0,0.0,0.0,-0.00468734186142683,0.010292194783687592,-0.005413472652435303,0.01,0.0,0.0,0.0,0.01,0.0,0.0,0.0,0.01,0.3118029236793518,-0.07277368754148483,9.771900177001953,0.01,0.0,0.0,0.0,0.01,0.0,0.0,0.0,0.01
1648214427.0306413,17825,1648214427,30209884,fufi_imu_link,-0.0018815498302154649,-0.01246133841373475,0.021472865823292105,0.9996899973734407,0.0,0.0,0.0,0.0,0.0,0.0,0.0,0.0,0.0,0.004893079400062561,-0.004802190698683262,-0.004442377015948296,0.01,0.0,0.0,0.0,0.01,0.0,0.0,0.0,0.01,0.14667117595672607,-0.2502683401107788,9.591623306274414,0.01,0.0,0.0,0.0,0.01,0.0,0.0,0.0,0.01
1648214427.0388064,17826,1648214427,38333923,fufi_imu_link,-0.0017977940483358986,-0.01233268563339074,0.021466601264284225,0.9996918814473728,0.0,0.0,0.0,0.0,0.0,0.0,0.0,0.0,0.0,0.014191173017024994,0.006578546483069658,-0.00167781300842762,0.01,0.0,0.0,0.0,0.01,0.0,0.0,0.0,0.01,-0.13993392884731293,0.06715242564678192,9.162700653076172,0.01,0.0,0.0,0.0,0.01,0.0,0.0,0.0,0.01
1648214427.0679736,17827,1648214427,67524987,fufi_imu_link,-0.0019105955896380567,-0.012045644353107895,0.021356961965871262,0.9996975203791393,0.0,0.0,0.0,0.0,0.0,0.0,0.0,0.0,0.0,-0.0067223417572677135,0.00816745962947607,-0.007452916353940964,0.01,0.0,0.0,0.0,0.01,0.0,0.0,0.0,0.01,-0.43675532937049866,-0.08222006261348724,9.955511093139648,0.01,0.0,0.0,0.0,0.01,0.0,0.0,0.0,0.01
1648214427.1052113,17828,1648214427,104737387,fufi_imu_link,-0.0021550643904241274,-0.011909422134133594,0.02167459825570073,0.999691819088442,0.0,0.0,0.0,0.0,0.0,0.0,0.0,0.0,0.0,-0.01138310506939888,-0.004300049506127834,0.017157629132270813,0.01,0.0,0.0,0.0,0.01,0.0,0.0,0.0,0.01,-0.6038748025894165,-0.1420060694217682,9.397199630737305,0.01,0.0,0.0,0.0,0.01,0.0,0.0,0.0,0.01
1648214427.1132941,17829,1648214427,112975774,fufi_imu_link,-0.002168928947319723,-0.011729274214087202,0.021752102627099097,0.999692235593001,0.0,0.0,0.0,0.0,0.0,0.0,0.0,0.0,0.0,0.0018071448430418968,-0.009400971233844757,0.018590468913316727,0.01,0.0,0.0,0.0,0.01,0.0,0.0,0.0,0.01,-0.6202235221862793,-0.11071944981813431,9.705257415771484,0.01,0.0,0.0,0.0,0.01,0.0,0.0,0.0,0.01
1648214427.1528811,17830,1648214427,151359549,fufi_imu_link,-0.0023079401910210268,-0.011573229815097308,0.02176877771723045,0.9996933800323075,0.0,0.0,0.0,0.0,0.0,0.0,0.0,0.0,0.0,-0.006634922698140144,-0.0010937158949673176,0.0009134281426668167,0.01,0.0,0.0,0.0,0.01,0.0,0.0,0.0,0.01,-0.4672764539718628,-0.07991961389780045,9.604674339294434,0.01,0.0,0.0,0.0,0.01,0.0,0.0,0.0,0.01
1648214427.1808383,17831,1648214427,179495370,fufi_imu_link,-0.002300711236845663,-0.011581093350213078,0.021740777374886965,0.9996939149578505,0.0,0.0,0.0,0.0,0.0,0.0,0.0,0.0,0.0,0.0005827420391142368,-0.00975477322936058,-0.0020472072064876556,0.01,0.0,0.0,0.0,0.01,0.0,0.0,0.0,0.01,-0.2723207175731659,-0.054536253213882446,9.584882736206055,0.01,0.0,0.0,0.0,0.01,0.0,0.0,0.0,0.01
1648214427.2442126,17832,1648214427,243874824,fufi_imu_link,-0.002116274851057193,-0.011778659235595566,0.021817449354118636,0.99969034379204,0.0,0.0,0.0,0.0,0.0,0.0,0.0,0.0,0.0,0.005781463347375393,-0.006828045938163996,0.0022966060787439346,0.01,0.0,0.0,0.0,0.01,0.0,0.0,0.0,0.01,0.15550163388252258,-0.06490530073642731,9.5556640625,0.01,0.0,0.0,0.0,0.01,0.0,0.0,0.0,0.01
1648214427.2627673,17833,1648214427,262434274,fufi_imu_link,-0.0021238672929954814,-0.011815225741062457,0.021818890725453965,0.9996898647260161,0.0,0.0,0.0,0.0,0.0,0.0,0.0,0.0,0.0,0.001876629190519452,-0.0041742785833776,9.119883179664612e-05,0.01,0.0,0.0,0.0,0.01,0.0,0.0,0.0,0.01,0.21720078587532043,-0.14443795382976532,9.608053207397461,0.01,0.0,0.0,0.0,0.01,0.0,0.0,0.0,0.01
1648214427.3098624,17834,1648214427,309380119,fufi_imu_link,-0.0022967708140896855,-0.01179427715471391,0.021895028146942407,0.9996880651546611,0.0,0.0,0.0,0.0,0.0,0.0,0.0,0.0,0.0,-0.006760148331522942,0.0033355350606143475,0.003331691026687622,0.01,0.0,0.0,0.0,0.01,0.0,0.0,0.0,0.01,0.4299578070640564,-0.09783244878053665,9.573278427124023,0.01,0.0,0.0,0.0,0.01,0.0,0.0,0.0,0.01
1648214427.3105407,17835,1648214427,310175560,fufi_imu_link,-0.0023680386888996975,-0.011843837220780432,0.02189567187568543,0.9996872988418769,0.0,0.0,0.0,0.0,0.0,0.0,0.0,0.0,0.0,-0.0035382139030843973,-0.0008965954184532166,-8.841976523399353e-05,0.01,0.0,0.0,0.0,0.01,0.0,0.0,0.0,0.01,0.41316622495651245,-0.3253543972969055,9.704652786254883,0.01,0.0,0.0,0.0,0.01,0.0,0.0,0.0,0.01
1648214427.376399,17836,1648214427,375621582,fufi_imu_link,-0.0024710993752374553,-0.011928831051723996,0.022003500493299473,0.9996836712798997,0.0,0.0,0.0,0.0,0.0,0.0,0.0,0.0,0.0,-0.0029047494754195213,0.0005982364527881145,0.0033383499830961227,0.01,0.0,0.0,0.0,0.01,0.0,0.0,0.0,0.01,0.6224873661994934,-0.08557134866714478,9.625992774963379,0.01,0.0,0.0,0.0,0.01,0.0,0.0,0.0,0.01
1648214427.3858757,17837,1648214427,385168231,fufi_imu_link,-0.0024533436599832826,-0.011995239379437729,0.022032301495939672,0.9996822860428748,0.0,0.0,0.0,0.0,0.0,0.0,0.0,0.0,0.0,0.0054225558415055275,0.002487598918378353,0.006003215909004211,0.01,0.0,0.0,0.0,0.01,0.0,0.0,0.0,0.01,0.5362531542778015,-0.08853624761104584,9.701566696166992,0.01,0.0,0.0,0.0,0.01,0.0,0.0,0.0,0.01
1648214427.4510164,17838,1648214427,450388111,fufi_imu_link,-0.0025779463740025917,-0.01204505991481516,0.022174629966227107,0.999678226485904,0.0,0.0,0.0,0.0,0.0,0.0,0.0,0.0,0.0,-0.003255216870456934,-0.0005868719890713692,0.004399776458740234,0.01,0.0,0.0,0.0,0.01,0.0,0.0,0.0,0.01,0.34093236923217773,-0.12365616858005524,9.670045852661133,0.01,0.0,0.0,0.0,0.01,0.0,0.0,0.0,0.01
1648214427.468645,17839,1648214427,468058758,fufi_imu_link,-0.0025766398712887234,-0.012071709828838836,0.022196916126570963,0.9996774138006981,0.0,0.0,0.0,0.0,0.0,0.0,0.0,0.0,0.0,0.0031039458699524403,0.0003659585490822792,0.0024615302681922913,0.01,0.0,0.0,0.0,0.01,0.0,0.0,0.0,0.01,0.34554150700569153,-0.15586520731449127,9.6065673828125,0.01,0.0,0.0,0.0,0.01,0.0,0.0,0.0,0.01
1648214427.506577,17840,1648214427,505826819,fufi_imu_link,-0.002644112061696611,-0.012029767202043117,0.022069218271989877,0.9996805704710546,0.0,0.0,0.0,0.0,0.0,0.0,0.0,0.0,0.0,-0.002024431014433503,0.003221539780497551,-0.006747575476765633,0.01,0.0,0.0,0.0,0.01,0.0,0.0,0.0,0.01,0.2937701940536499,-0.1691819131374359,9.558876991271973,0.01,0.0,0.0,0.0,0.01,0.0,0.0,0.0,0.01
1648214427.515135,17841,1648214427,514487632,fufi_imu_link,-0.0026648671254824352,-0.012033065582069909,0.022040615570074095,0.9996811066941264,0.0,0.0,0.0,0.0,0.0,0.0,0.0,0.0,0.0,0.002127830870449543,-0.00019838986918330193,-0.0067154839634895325,0.01,0.0,0.0,0.0,0.01,0.0,0.0,0.0,0.01,0.2389843463897705,-0.17373783886432648,9.673670768737793,0.01,0.0,0.0,0.0,0.01,0.0,0.0,0.0,0.01
1648214427.525882,17842,1648214427,525338264,fufi_imu_link,-0.002694632425515008,-0.012022257256157558,0.021991118921256016,0.9996822470040915,0.0,0.0,0.0,0.0,0.0,0.0,0.0,0.0,0.0,0.0006933985278010368,0.0011493917554616928,-0.00920894742012024,0.01,0.0,0.0,0.0,0.01,0.0,0.0,0.0,0.01,0.21031706035137177,-0.18735769391059875,9.65322494506836,0.01,0.0,0.0,0.0,0.01,0.0,0.0,0.0,0.01
1648214427.5435736,17843,1648214427,542847305,fufi_imu_link,-0.002726885752186057,-0.012006346243013307,0.02190149617587525,0.9996843182771477,0.0,0.0,0.0,0.0,0.0,0.0,0.0,0.0,0.0,0.00045556697295978665,0.0005234298296272755,-0.010299351066350937,0.01,0.0,0.0,0.0,0.01,0.0,0.0,0.0,0.01,0.1833980232477188,-0.1998264640569687,9.654632568359375,0.01,0.0,0.0,0.0,0.01,0.0,0.0,0.0,0.01
1648214427.5812175,17844,1648214427,580522399,fufi_imu_link,-0.002757016140101269,-0.011942015506670399,0.0218487376833713,0.9996861606470728,0.0,0.0,0.0,0.0,0.0,0.0,0.0,0.0,0.0,-0.0005265322397463024,0.0014488925226032734,-0.0028100870549678802,0.01,0.0,0.0,0.0,0.01,0.0,0.0,0.0,0.01,0.08354005962610245,-0.13227829337120056,9.606480598449707,0.01,0.0,0.0,0.0,0.01,0.0,0.0,0.0,0.01
1648214427.589114,17845,1648214427,588485474,fufi_imu_link,-0.00278474090017086,-0.011910037142266969,0.02184212257969397,0.9996866098506083,0.0,0.0,0.0,0.0,0.0,0.0,0.0,0.0,0.0,0.0009237261838279665,-0.0012813233770430088,-0.001798907294869423,0.01,0.0,0.0,0.0,0.01,0.0,0.0,0.0,0.01,0.08364316821098328,-0.17661979794502258,9.628622055053711,0.01,0.0,0.0,0.0,0.01,0.0,0.0,0.0,0.01
1648214427.6184428,17846,1648214427,617696443,fufi_imu_link,-0.0029172433207386226,-0.011859128485797371,0.021875455108356624,0.9996861083493994,0.0,0.0,0.0,0.0,0.0,0.0,0.0,0.0,0.0,-0.0038296072743833065,0.0009503304027020931,0.0022615790367126465,0.01,0.0,0.0,0.0,0.01,0.0,0.0,0.0,0.01,0.07455382496118546,-0.3493804931640625,9.641803741455078,0.01,0.0,0.0,0.0,0.01,0.0,0.0,0.0,0.01
1648214427.6554625,17847,1648214427,654808477,fufi_imu_link,-0.0031709651745847997,-0.011775296341809821,0.0220450503350241,0.9996826011948245,0.0,0.0,0.0,0.0,0.0,0.0,0.0,0.0,0.0,-0.0068023973144590855,0.0029380391351878643,0.009147509932518005,0.01,0.0,0.0,0.0,0.01,0.0,0.0,0.0,0.01,0.09277229011058807,-0.5352031588554382,9.536286354064941,0.01,0.0,0.0,0.0,0.01,0.0,0.0,0.0,0.01
1648214427.6639218,17848,1648214427,663162894,fufi_imu_link,-0.0032944704288912796,-0.011736858561446566,0.02209919991094777,0.9996814582550773,0.0,0.0,0.0,0.0,0.0,0.0,0.0,0.0,0.0,0.0027889786288142204,0.0017258469015359879,0.012538308277726173,0.01,0.0,0.0,0.0,0.01,0.0,0.0,0.0,0.01,0.09483132511377335,-0.5804157257080078,9.61129379272461,0.01,0.0,0.0,0.0,0.01,0.0,0.0,0.0,0.01
1648214427.7021039,17849,1648214427,701440641,fufi_imu_link,-0.0034662372854832647,-0.011762846249414488,0.022552184415275553,0.9996704555128619,0.0,0.0,0.0,0.0,0.0,0.0,0.0,0.0,0.0,-0.0011117496760562062,-0.0024135408457368612,0.023588024079799652,0.01,0.0,0.0,0.0,0.01,0.0,0.0,0.0,0.01,0.1392870992422104,-0.633769154548645,9.663787841796875,0.01,0.0,0.0,0.0,0.01,0.0,0.0,0.0,0.01
1648214427.7305245,17850,1648214427,729992807,fufi_imu_link,-0.0036737624970446464,-0.011702840381868583,0.022852302857787443,0.9996636030436479,0.0,0.0,0.0,0.0,0.0,0.0,0.0,0.0,0.0,-0.004516236484050751,0.0012559141032397747,0.020961949601769447,0.01,0.0,0.0,0.0,0.01,0.0,0.0,0.0,0.01,0.04829622060060501,-0.604282557964325,9.598979949951172,0.01,0.0,0.0,0.0,0.01,0.0,0.0,0.0,0.01
1648214427.738779,17851,1648214427,738117139,fufi_imu_link,-0.003790804989406962,-0.011689762408640208,0.022929322975834367,0.9996615554277516,0.0,0.0,0.0,0.0,0.0,0.0,0.0,0.0,0.0,0.0009717092616483569,-0.002328077796846628,0.018580904230475426,0.01,0.0,0.0,0.0,0.01,0.0,0.0,0.0,0.01,0.1278361678123474,-0.5379049777984619,9.629670143127441,0.01,0.0,0.0,0.0,0.01,0.0,0.0,0.0,0.01
1648214427.7861235,17852,1648214427,784765385,fufi_imu_link,-0.00391868335355653,-0.011737621546054046,0.02303505991144976,0.9996580706301991,0.0,0.0,0.0,0.0,0.0,0.0,0.0,0.0,0.0,0.001089067431166768,-0.0025796378031373024,0.004433717578649521,0.01,0.0,0.0,0.0,0.01,0.0,0.0,0.0,0.01,0.16710251569747925,-0.6679726243019104,9.616426467895508,0.01,0.0,0.0,0.0,0.01,0.0,0.0,0.0,0.01
1648214427.805062,17853,1648214427,804344246,fufi_imu_link,-0.004046289826080462,-0.011716363720938702,0.022988670125160208,0.9996588795212488,0.0,0.0,0.0,0.0,0.0,0.0,0.0,0.0,0.0,0.0027148528024554253,0.0035364362411201,-0.004935158416628838,0.01,0.0,0.0,0.0,0.01,0.0,0.0,0.0,0.01,0.25912049412727356,-0.6651144623756409,9.479602813720703,0.01,0.0,0.0,0.0,0.01,0.0,0.0,0.0,0.01
1648214427.8138974,17854,1648214427,813016192,fufi_imu_link,-0.004161950479177927,-0.011673736741147092,0.02295703274864644,0.9996596304173161,0.0,0.0,0.0,0.0,0.0,0.0,0.0,0.0,0.0,0.003588129999116063,0.005586627405136824,-0.0076870303601026535,0.01,0.0,0.0,0.0,0.01,0.0,0.0,0.0,0.01,0.13953648507595062,-0.5779474973678589,9.486112594604492,0.01,0.0,0.0,0.0,0.01,0.0,0.0,0.0,0.01
1648214427.8597598,17855,1648214427,859477706,fufi_imu_link,-0.003944477551623475,-0.011593697472425763,0.0225705227483549,0.999670245020141,0.0,0.0,0.0,0.0,0.0,0.0,0.0,0.0,0.0,0.012734191492199898,0.0016892771236598492,-0.016832109540700912,0.01,0.0,0.0,0.0,0.01,0.0,0.0,0.0,0.01,0.07826819270849228,-0.3944762349128723,9.689699172973633,0.01,0.0,0.0,0.0,0.01,0.0,0.0,0.0,0.01
1648214427.8600702,17856,1648214427,859888265,fufi_imu_link,-0.00402922970809198,-0.011576666845883612,0.022567730554891814,0.9996701674203852,0.0,0.0,0.0,0.0,0.0,0.0,0.0,0.0,0.0,-5.3978292271494865e-05,0.0006129690445959568,-0.018701907247304916,0.01,0.0,0.0,0.0,0.01,0.0,0.0,0.0,0.01,0.150595024228096,-0.4107365608215332,9.734065055847168,0.01,0.0,0.0,0.0,0.01,0.0,0.0,0.0,0.01
1648214427.8876147,17857,1648214427,887289809,fufi_imu_link,-0.0037934759192685963,-0.011487940597817025,0.022270726540813513,0.9996787741572867,0.0,0.0,0.0,0.0,0.0,0.0,0.0,0.0,0.0,0.015641717240214348,0.005232279654592276,-0.021832583472132683,0.01,0.0,0.0,0.0,0.01,0.0,0.0,0.0,0.01,0.1726820170879364,-0.00145054142922163,9.793157577514648,0.01,0.0,0.0,0.0,0.01,0.0,0.0,0.0,0.01
1648214427.925677,17858,1648214427,925346092,fufi_imu_link,-0.0037519161971125655,-0.011501889366428006,0.02192658583701862,0.9996863780703347,0.0,0.0,0.0,0.0,0.0,0.0,0.0,0.0,0.0,5.742890061810613e-05,0.0006351950578391552,-0.018062584102153778,0.01,0.0,0.0,0.0,0.01,0.0,0.0,0.0,0.01,0.31785261631011963,0.061825282871723175,9.627111434936523,0.01,0.0,0.0,0.0,0.01,0.0,0.0,0.0,0.01
1648214427.935196,17859,1648214427,934822302,fufi_imu_link,-0.0037198523964029452,-0.011484533428601505,0.021850063255210057,0.9996883729071873,0.0,0.0,0.0,0.0,0.0,0.0,0.0,0.0,0.0,-0.0013078630436211824,-0.0002261553891003132,-0.01606719195842743,0.01,0.0,0.0,0.0,0.01,0.0,0.0,0.0,0.01,0.14898620545864105,0.06761514395475388,9.53426742553711,0.01,0.0,0.0,0.0,0.01,0.0,0.0,0.0,0.01
1648214428.0011458,17860,1648214428,421445,fufi_imu_link,-0.00386395007030444,-0.011542425321901261,0.021908877703036605,0.9996858723545792,0.0,0.0,0.0,0.0,0.0,0.0,0.0,0.0,0.0,-0.005707596894353628,-0.000659232959151268,0.0018760263919830322,0.01,0.0,0.0,0.0,0.01,0.0,0.0,0.0,0.01,0.34604668617248535,0.08333609998226166,9.558826446533203,0.01,0.0,0.0,0.0,0.01,0.0,0.0,0.0,0.01
1648214428.018767,17861,1648214428,18127781,fufi_imu_link,-0.0037126759387334334,-0.011515676519458676,0.021940594800715755,0.9996860584860949,0.0,0.0,0.0,0.0,0.0,0.0,0.0,0.0,0.0,0.0035809576511383057,0.0038035851903259754,0.0037164129316806793,0.01,0.0,0.0,0.0,0.01,0.0,0.0,0.0,0.01,0.2552967965602875,0.3789154887199402,9.45514965057373,0.01,0.0,0.0,0.0,0.01,0.0,0.0,0.0,0.01
1648214428.0565708,17862,1648214428,55918186,fufi_imu_link,-0.003848236032526207,-0.011428826312985137,0.02216659095545201,0.9996815569239833,0.0,0.0,0.0,0.0,0.0,0.0,0.0,0.0,0.0,-0.011412153020501137,0.004987120162695646,0.012165924534201622,0.01,0.0,0.0,0.0,0.01,0.0,0.0,0.0,0.01,0.24124878644943237,0.24787519872188568,9.72170639038086,0.01,0.0,0.0,0.0,0.01,0.0,0.0,0.0,0.01
1648214428.0651941,17863,1648214428,64557397,fufi_imu_link,-0.0037684584173914262,-0.011453605213154423,0.022224191462907182,0.9996802983767349,0.0,0.0,0.0,0.0,0.0,0.0,0.0,0.0,0.0,0.0037067201919853687,-0.0025405706837773323,0.013469148427248001,0.01,0.0,0.0,0.0,0.01,0.0,0.0,0.0,0.01,0.28272342681884766,0.169275164604187,9.73758316040039,0.01,0.0,0.0,0.0,0.01,0.0,0.0,0.0,0.01
1648214428.0759554,17864,1648214428,75279237,fufi_imu_link,-0.003795377052111896,-0.01146698715982504,0.02230298761179394,0.9996782882818337,0.0,0.0,0.0,0.0,0.0,0.0,0.0,0.0,0.0,-0.008890220895409584,-0.0010504056699573994,0.014851834625005722,0.01,0.0,0.0,0.0,0.01,0.0,0.0,0.0,0.01,0.24701006710529327,0.0038291881792247295,9.596800804138184,0.01,0.0,0.0,0.0,0.01,0.0,0.0,0.0,0.01
1648214428.0941565,17865,1648214428,92839444,fufi_imu_link,-0.0038702056878257506,-0.011463305970148966,0.022399609717213616,0.999675883278518,0.0,0.0,0.0,0.0,0.0,0.0,0.0,0.0,0.0,-0.010008939541876316,0.0008877585642039776,0.011146150529384613,0.01,0.0,0.0,0.0,0.01,0.0,0.0,0.0,0.01,0.2284252792596817,-0.024644900113344193,9.563955307006836,0.01,0.0,0.0,0.0,0.01,0.0,0.0,0.0,0.01
1648214428.103062,17866,1648214428,102403100,fufi_imu_link,-0.0038403344285556115,-0.011457649122183755,0.02241191110228067,0.9996757876175723,0.0,0.0,0.0,0.0,0.0,0.0,0.0,0.0,0.0,0.0013476648600772023,0.0019060494378209114,0.002624964341521263,0.01,0.0,0.0,0.0,0.01,0.0,0.0,0.0,0.01,0.23079833388328552,0.01170521043241024,9.45663070678711,0.01,0.0,0.0,0.0,0.01,0.0,0.0,0.0,0.01
1648214428.131135,17867,1648214428,130493056,fufi_imu_link,-0.003908906917583077,-0.011281237640914415,0.02211630831566238,0.9996841116225093,0.0,0.0,0.0,0.0,0.0,0.0,0.0,0.0,0.0,-0.0022678757086396217,0.009890211746096611,-0.021030787378549576,0.01,0.0,0.0,0.0,0.01,0.0,0.0,0.0,0.01,0.061750542372465134,-0.2196764349937439,9.678972244262695,0.01,0.0,0.0,0.0,0.01,0.0,0.0,0.0,0.01
1648214428.1391764,17868,1648214428,138510285,fufi_imu_link,-0.0039257395713118304,-0.011225516322670628,0.02199880253545255,0.9996872656181602,0.0,0.0,0.0,0.0,0.0,0.0,0.0,0.0,0.0,0.0017348263645544648,0.004745314363390207,-0.029430732131004333,0.01,0.0,0.0,0.0,0.01,0.0,0.0,0.0,0.01,0.07107268273830414,-0.17311078310012817,9.698944091796875,0.01,0.0,0.0,0.0,0.01,0.0,0.0,0.0,0.01
1648214428.1683798,17869,1648214428,167737534,fufi_imu_link,-0.00411149407526965,-0.011208775594276695,0.021304444799391063,0.9997017453210412,0.0,0.0,0.0,0.0,0.0,0.0,0.0,0.0,0.0,-0.009669587016105652,-0.000478111207485199,-0.04747091606259346,0.01,0.0,0.0,0.0,0.01,0.0,0.0,0.0,0.01,0.09673701226711273,-0.2828022539615631,9.644347190856934,0.01,0.0,0.0,0.0,0.01,0.0,0.0,0.0,0.01
1648214428.1955125,17870,1648214428,194993578,fufi_imu_link,-0.004209424608540934,-0.01115478263205253,0.020266220201009953,0.9997235277253711,0.0,0.0,0.0,0.0,0.0,0.0,0.0,0.0,0.0,-0.0007848687237128615,-0.0011766268871724606,-0.07630592584609985,0.01,0.0,0.0,0.0,0.01,0.0,0.0,0.0,0.01,-0.079618439078331,-0.4558870792388916,9.538671493530273,0.01,0.0,0.0,0.0,0.01,0.0,0.0,0.0,0.01
1648214428.2139816,17871,1648214428,213269299,fufi_imu_link,-0.004267364481735543,-0.011074763359620543,0.01942659419367156,0.9997408397454527,0.0,0.0,0.0,0.0,0.0,0.0,0.0,0.0,0.0,-0.0023186933249235153,0.0021611214615404606,-0.09196054190397263,0.01,0.0,0.0,0.0,0.01,0.0,0.0,0.0,0.01,-0.03802746161818504,-0.25712013244628906,9.640636444091797,0.01,0.0,0.0,0.0,0.01,0.0,0.0,0.0,0.01
1648214428.2803183,17872,1648214428,279569802,fufi_imu_link,-0.004550771136366561,-0.011235860782561268,0.014013592552534433,0.9998283178317721,0.0,0.0,0.0,0.0,0.0,0.0,0.0,0.0,0.0,-0.010023778304457664,-0.0050323642790317535,-0.16324329376220703,0.01,0.0,0.0,0.0,0.01,0.0,0.0,0.0,0.01,0.07790198922157288,-0.14039702713489532,9.379213333129883,0.01,0.0,0.0,0.0,0.01,0.0,0.0,0.0,0.01
1648214428.2883873,17873,1648214428,287941545,fufi_imu_link,-0.004618091793556063,-0.01121927941053377,0.013280015774422064,0.9998382080010375,0.0,0.0,0.0,0.0,0.0,0.0,0.0,0.0,0.0,-0.004769079387187958,-0.0040727942250669,-0.17543618381023407,0.01,0.0,0.0,0.0,0.01,0.0,0.0,0.0,0.01,0.06929343938827515,-0.3042250871658325,9.634522438049316,0.01,0.0,0.0,0.0,0.01,0.0,0.0,0.0,0.01
1648214428.335751,17874,1648214428,334900085,fufi_imu_link,-0.004742567625225711,-0.011190220711500061,0.008786597588361332,0.9998875350335998,0.0,0.0,0.0,0.0,0.0,0.0,0.0,0.0,0.0,-0.007043417077511549,0.0019509289413690567,-0.19132275879383087,0.01,0.0,0.0,0.0,0.01,0.0,0.0,0.0,0.01,0.19127830862998962,-0.127531036734581,9.638193130493164,0.01,0.0,0.0,0.0,0.01,0.0,0.0,0.0,0.01
1648214428.355106,17875,1648214428,354514470,fufi_imu_link,-0.004717495969171446,-0.011194969682123804,0.006844009892573422,0.9999027839816167,0.0,0.0,0.0,0.0,0.0,0.0,0.0,0.0,0.0,0.000848339986987412,-0.0005531306378543377,-0.19812147319316864,0.01,0.0,0.0,0.0,0.01,0.0,0.0,0.0,0.01,0.17617537081241608,-0.11070813238620758,9.566707611083984,0.01,0.0,0.0,0.0,0.01,0.0,0.0,0.0,0.01
1648214428.36426,17876,1648214428,363618835,fufi_imu_link,-0.004732660447282643,-0.01121733008460863,0.00594432528999388,0.9999082150016123,0.0,0.0,0.0,0.0,0.0,0.0,0.0,0.0,0.0,-0.005227805580943823,-0.00551329692825675,-0.1976357400417328,0.01,0.0,0.0,0.0,0.01,0.0,0.0,0.0,0.01,0.19026529788970947,-0.09958985447883606,9.73869514465332,0.01,0.0,0.0,0.0,0.01,0.0,0.0,0.0,0.01
1648214428.4102852,17877,1648214428,409611131,fufi_imu_link,-0.004667542070526981,-0.011190014724169082,0.0011390250639617332,0.9999258473723921,0.0,0.0,0.0,0.0,0.0,0.0,0.0,0.0,0.0,0.0015234877355396748,0.0005113454535603523,-0.2090136855840683,0.01,0.0,0.0,0.0,0.01,0.0,0.0,0.0,0.01,0.06977249681949615,-0.1812516301870346,9.628779411315918,0.01,0.0,0.0,0.0,0.01,0.0,0.0,0.0,0.01
1648214428.411463,17878,1648214428,410638610,fufi_imu_link,-0.0046974543367795905,-0.011155197222658866,0.0010292815528739159,0.9999262153164915,0.0,0.0,0.0,0.0,0.0,0.0,0.0,0.0,0.0,-0.0059027052484452724,0.003346723038703203,-0.21446958184242249,0.01,0.0,0.0,0.0,0.01,0.0,0.0,0.0,0.01,0.08528435975313187,-0.19716933369636536,9.572883605957031,0.01,0.0,0.0,0.0,0.01,0.0,0.0,0.0,0.01
1648214428.4376233,17879,1648214428,437292996,fufi_imu_link,-0.004736641099895411,-0.01111997327584885,-0.0018680985485434246,0.9999252075196665,0.0,0.0,0.0,0.0,0.0,0.0,0.0,0.0,0.0,-0.0037653744220733643,0.0025103739462792873,-0.21738970279693604,0.01,0.0,0.0,0.0,0.01,0.0,0.0,0.0,0.01,0.15438757836818695,-0.171380415558815,9.558097839355469,0.01,0.0,0.0,0.0,0.01,0.0,0.0,0.0,0.01
1648214428.4757462,17880,1648214428,475420520,fufi_imu_link,-0.004837338003136534,-0.010967172685715156,-0.006296944052027991,0.999908330688334,0.0,0.0,0.0,0.0,0.0,0.0,0.0,0.0,0.0,-0.006428966764360666,0.008552385494112968,-0.23224471509456635,0.01,0.0,0.0,0.0,0.01,0.0,0.0,0.0,0.01,0.1710837334394455,-0.1966635137796402,9.544020652770996,0.01,0.0,0.0,0.0,0.01,0.0,0.0,0.0,0.01
1648214428.4849093,17881,1648214428,484607225,fufi_imu_link,-0.004866910799940545,-0.010910536410504556,-0.00740751310580699,0.9999011961809466,0.0,0.0,0.0,0.0,0.0,0.0,0.0,0.0,0.0,-0.001290143234655261,0.007379481103271246,-0.24186593294143677,0.01,0.0,0.0,0.0,0.01,0.0,0.0,0.0,0.01,0.10416039824485779,-0.2310020923614502,9.621740341186523,0.01,0.0,0.0,0.0,0.01,0.0,0.0,0.0,0.01
1648214428.5512722,17882,1648214428,550473639,fufi_imu_link,-0.005176216702188691,-0.010920292152774626,-0.01584221164743255,0.999801469457846,0.0,0.0,0.0,0.0,0.0,0.0,0.0,0.0,0.0,-0.01186054851859808,-0.000655387993901968,-0.2560426592826843,0.01,0.0,0.0,0.0,0.01,0.0,0.0,0.0,0.01,0.022421468049287796,-0.14010119438171387,9.594636917114258,0.01,0.0,0.0,0.0,0.01,0.0,0.0,0.0,0.01
1648214428.5589547,17883,1648214428,558358290,fufi_imu_link,-0.005259150755777266,-0.010865523633085772,-0.01691192173151499,0.9997841110123995,0.0,0.0,0.0,0.0,0.0,0.0,0.0,0.0,0.0,-0.015112606808543205,0.002501172013580799,-0.2713797688484192,0.01,0.0,0.0,0.0,0.01,0.0,0.0,0.0,0.01,0.023359224200248718,-0.2344091534614563,9.568120956420898,0.01,0.0,0.0,0.0,0.01,0.0,0.0,0.0,0.01
1648214428.6066132,17884,1648214428,605971867,fufi_imu_link,-0.005197504382304941,-0.010879826530897887,-0.024731394758499062,0.999621415054796,0.0,0.0,0.0,0.0,0.0,0.0,0.0,0.0,0.0,0.001252274727448821,-0.0027069379575550556,-0.3286292552947998,0.01,0.0,0.0,0.0,0.01,0.0,0.0,0.0,0.01,-0.13445796072483063,-0.3056894540786743,9.690296173095703,0.01,0.0,0.0,0.0,0.01,0.0,0.0,0.0,0.01
1648214428.6149764,17885,1648214428,614468969,fufi_imu_link,-0.005221798323081854,-0.010768339320207203,-0.026155139482067873,0.9995862565928123,0.0,0.0,0.0,0.0,0.0,0.0,0.0,0.0,0.0,-0.003782056737691164,0.0033365380950272083,-0.3353707790374756,0.01,0.0,0.0,0.0,0.01,0.0,0.0,0.0,0.01,-0.18530689179897308,-0.19562837481498718,9.52062702178955,0.01,0.0,0.0,0.0,0.01,0.0,0.0,0.0,0.01
1648214428.6262743,17886,1648214428,625415664,fufi_imu_link,-0.005242877388045024,-0.010673708018908067,-0.02805785606645809,0.9995355626023393,0.0,0.0,0.0,0.0,0.0,0.0,0.0,0.0,0.0,0.0005434750346466899,-0.0003197197802364826,-0.347977876663208,0.01,0.0,0.0,0.0,0.01,0.0,0.0,0.0,0.01,-0.19459012150764465,-0.2771505117416382,9.62613296508789,0.01,0.0,0.0,0.0,0.01,0.0,0.0,0.0,0.01
1648214428.643696,17887,1648214428,642968860,fufi_imu_link,-0.005359805092126973,-0.010553167496196824,-0.031221035419748955,0.9994424195982932,0.0,0.0,0.0,0.0,0.0,0.0,0.0,0.0,0.0,-0.01214745081961155,0.007221186067909002,-0.3605250120162964,0.01,0.0,0.0,0.0,0.01,0.0,0.0,0.0,0.01,-0.05935396999120712,-0.2820664942264557,9.653910636901855,0.01,0.0,0.0,0.0,0.01,0.0,0.0,0.0,0.01
1648214428.6814227,17888,1648214428,680622735,fufi_imu_link,-0.00531137155645602,-0.010476775871361551,-0.03840201855834524,0.9991933303771473,0.0,0.0,0.0,0.0,0.0,0.0,0.0,0.0,0.0,-0.0007743352907709777,0.0030221114866435528,-0.3816850781440735,0.01,0.0,0.0,0.0,0.01,0.0,0.0,0.0,0.01,-0.01182346697896719,-0.15961255133152008,9.643706321716309,0.01,0.0,0.0,0.0,0.01,0.0,0.0,0.0,0.01
1648214428.6891818,17889,1648214428,688603826,fufi_imu_link,-0.005345683754508397,-0.010434716235575903,-0.03992607108788936,0.999133849496535,0.0,0.0,0.0,0.0,0.0,0.0,0.0,0.0,0.0,-0.014223739504814148,0.00590928690508008,-0.3820706903934479,0.01,0.0,0.0,0.0,0.01,0.0,0.0,0.0,0.01,0.11300759762525558,-0.07913132011890411,9.837359428405762,0.01,0.0,0.0,0.0,0.01,0.0,0.0,0.0,0.01
1648214428.718558,17890,1648214428,717753730,fufi_imu_link,-0.005353654076882617,-0.01039145891026134,-0.045435851557555515,0.9988988634306184,0.0,0.0,0.0,0.0,0.0,0.0,0.0,0.0,0.0,-0.0031554806046187878,0.004331520292907953,-0.3783685564994812,0.01,0.0,0.0,0.0,0.01,0.0,0.0,0.0,0.01,0.17853465676307678,-0.17953592538833618,9.596254348754883,0.01,0.0,0.0,0.0,0.01,0.0,0.0,0.0,0.01
1648214428.745765,17891,1648214428,745077559,fufi_imu_link,-0.005003902467490998,-0.010334299390914715,-0.05053384443566971,0.9986563441858998,0.0,0.0,0.0,0.0,0.0,0.0,0.0,0.0,0.0,0.02027338556945324,0.008625859394669533,-0.3737599551677704,0.01,0.0,0.0,0.0,0.01,0.0,0.0,0.0,0.01,0.2956473231315613,-0.02769739367067814,10.152997016906738,0.01,0.0,0.0,0.0,0.01,0.0,0.0,0.0,0.01
1648214428.7637813,17892,1648214428,763263495,fufi_imu_link,-0.0049610020328608555,-0.01029633354070503,-0.05383547646767731,0.9984844092162615,0.0,0.0,0.0,0.0,0.0,0.0,0.0,0.0,0.0,-0.008781577460467815,0.007791847921907902,-0.3633798062801361,0.01,0.0,0.0,0.0,0.01,0.0,0.0,0.0,0.01,0.2716282606124878,0.25201043486595154,9.924060821533203,0.01,0.0,0.0,0.0,0.01,0.0,0.0,0.0,0.01
1648214428.8390214,17893,1648214428,838205023,fufi_imu_link,-0.004644647679687708,-0.010115283728454622,-0.06627421976683529,0.9977393627983823,0.0,0.0,0.0,0.0,0.0,0.0,0.0,0.0,0.0,0.003854430513456464,0.0070208595134317875,-0.33259549736976624,0.01,0.0,0.0,0.0,0.01,0.0,0.0,0.0,0.01,0.24350859224796295,0.039241909980773926,9.693105697631836,0.01,0.0,0.0,0.0,0.01,0.0,0.0,0.0,0.01
1648214428.8856208,17894,1648214428,884913062,fufi_imu_link,-0.004587395475015268,-0.010297083110902836,-0.07413340431608541,0.9971846189380735,0.0,0.0,0.0,0.0,0.0,0.0,0.0,0.0,0.0,-0.0011163689196109772,-0.007268943358212709,-0.33740460872650146,0.01,0.0,0.0,0.0,0.01,0.0,0.0,0.0,0.01,0.11580884456634521,-0.023678485304117203,9.648055076599121,0.01,0.0,0.0,0.0,0.01,0.0,0.0,0.0,0.01
1648214428.9052687,17895,1648214428,904456624,fufi_imu_link,-0.004630355955167383,-0.010247720731309347,-0.07750399302732466,0.9969286208592679,0.0,0.0,0.0,0.0,0.0,0.0,0.0,0.0,0.0,-0.00701359286904335,0.003465615678578615,-0.34588494896888733,0.01,0.0,0.0,0.0,0.01,0.0,0.0,0.0,0.01,0.10531887412071228,-0.12382380664348602,9.38625717163086,0.01,0.0,0.0,0.0,0.01,0.0,0.0,0.0,0.01
1648214428.9138918,17896,1648214428,913104649,fufi_imu_link,-0.004658461879107993,-0.010180339287670693,-0.07900953972903814,0.9968109911396014,0.0,0.0,0.0,0.0,0.0,0.0,0.0,0.0,0.0,-0.007091010920703411,0.012815076857805252,-0.34920114278793335,0.01,0.0,0.0,0.0,0.01,0.0,0.0,0.0,0.01,0.14228248596191406,-0.14362549781799316,9.525893211364746,0.01,0.0,0.0,0.0,0.01,0.0,0.0,0.0,0.01
1648214428.9603693,17897,1648214428,959641268,fufi_imu_link,-0.004303990945380031,-0.010148487053534867,-0.08733939885866893,0.9961176202032934,0.0,0.0,0.0,0.0,0.0,0.0,0.0,0.0,0.0,0.011763597838580608,0.00270912516862154,-0.35938435792922974,0.01,0.0,0.0,0.0,0.01,0.0,0.0,0.0,0.01,0.09374880790710449,-0.10892561078071594,9.687179565429688,0.01,0.0,0.0,0.0,0.01,0.0,0.0,0.0,0.01
1648214428.961328,17898,1648214428,960510078,fufi_imu_link,-0.00431726941039196,-0.010132433909241357,-0.08749554934754103,0.9961040225861378,0.0,0.0,0.0,0.0,0.0,0.0,0.0,0.0,0.0,-0.01795184798538685,0.012784700840711594,-0.3608902096748352,0.01,0.0,0.0,0.0,0.01,0.0,0.0,0.0,0.01,0.1626216024160385,-0.0973813608288765,9.543319702148438,0.01,0.0,0.0,0.0,0.01,0.0,0.0,0.0,0.01
1648214428.9800637,17899,1648214428,979266978,fufi_imu_link,-0.004304084240705969,-0.010080826095001907,-0.09089463983781569,0.9958001889198681,0.0,0.0,0.0,0.0,0.0,0.0,0.0,0.0,0.0,0.0013772811507806182,0.006967710796743631,-0.3639398515224457,0.01,0.0,0.0,0.0,0.01,0.0,0.0,0.0,0.01,0.2052302062511444,-0.21768489480018616,9.593536376953125,0.01,0.0,0.0,0.0,0.01,0.0,0.0,0.0,0.01
1648214428.9884765,17900,1648214428,987779688,fufi_imu_link,-0.004293520888278213,-0.01006263112722926,-0.09242973142187477,0.9956591052576477,0.0,0.0,0.0,0.0,0.0,0.0,0.0,0.0,0.0,-0.004427231382578611,0.014308146201074123,-0.3620491623878479,0.01,0.0,0.0,0.0,0.01,0.0,0.0,0.0,0.01,0.3480212688446045,-0.0200163833796978,9.824687957763672,0.01,0.0,0.0,0.0,0.01,0.0,0.0,0.0,0.01
1648214429.0352213,17901,1648214429,34542594,fufi_imu_link,-0.0041543876547787,-0.010040475680987274,-0.10055795929319461,0.9948718644800956,0.0,0.0,0.0,0.0,0.0,0.0,0.0,0.0,0.0,0.003812577808275819,0.0033479975536465645,-0.34933534264564514,0.01,0.0,0.0,0.0,0.01,0.0,0.0,0.0,0.01,0.268891304731369,-0.20816239714622498,9.789765357971191,0.01,0.0,0.0,0.0,0.01,0.0,0.0,0.0,0.01
1648214429.036294,17902,1648214429,35786766,fufi_imu_link,-0.004175942017707471,-0.010034571494343498,-0.10077421888077998,0.9948499513455075,0.0,0.0,0.0,0.0,0.0,0.0,0.0,0.0,0.0,-0.008871661499142647,0.009439271874725819,-0.3496217429637909,0.01,0.0,0.0,0.0,0.01,0.0,0.0,0.0,0.01,0.20383614301681519,-0.1310909390449524,9.522289276123047,0.01,0.0,0.0,0.0,0.01,0.0,0.0,0.0,0.01
1648214429.1005244,17903,1648214429,100119548,fufi_imu_link,-0.004040093907062024,-0.010137376560571204,-0.11165816756438751,0.9936867538886963,0.0,0.0,0.0,0.0,0.0,0.0,0.0,0.0,0.0,0.0014387695118784904,-0.0023069705348461866,-0.3403550088405609,0.01,0.0,0.0,0.0,0.01,0.0,0.0,0.0,0.01,0.1314166784286499,-0.11536261439323425,9.809562683105469,0.01,0.0,0.0,0.0,0.01,0.0,0.0,0.0,0.01
1648214429.1096587,17904,1648214429,109372013,fufi_imu_link,-0.004080344189091794,-0.010112051647969342,-0.11323285886286764,0.9935086395580611,0.0,0.0,0.0,0.0,0.0,0.0,0.0,0.0,0.0,-0.01999637484550476,-0.0017074281349778175,-0.34231463074684143,0.01,0.0,0.0,0.0,0.01,0.0,0.0,0.0,0.01,0.07483990490436554,0.06989891082048416,9.57815170288086,0.01,0.0,0.0,0.0,0.01,0.0,0.0,0.0,0.01
1648214429.1559522,17905,1648214429,155604601,fufi_imu_link,-0.003680009829034492,-0.010245141952322701,-0.1212026272063831,0.9925680922497486,0.0,0.0,0.0,0.0,0.0,0.0,0.0,0.0,0.0,0.013917721807956696,-0.004639529623091221,-0.3473513126373291,0.01,0.0,0.0,0.0,0.01,0.0,0.0,0.0,0.01,0.0386117622256279,-0.022555146366357803,9.765071868896484,0.01,0.0,0.0,0.0,0.01,0.0,0.0,0.0,0.01
1648214429.1756198,17906,1648214429,175102675,fufi_imu_link,-0.0034921273624348515,-0.0104519764987996,-0.12450085348182824,0.9921583032540974,0.0,0.0,0.0,0.0,0.0,0.0,0.0,0.0,0.0,0.013089473359286785,-0.016872206702828407,-0.3410590887069702,0.01,0.0,0.0,0.0,0.01,0.0,0.0,0.0,0.01,0.2529478669166565,0.14895473420619965,9.891364097595215,0.01,0.0,0.0,0.0,0.01,0.0,0.0,0.0,0.01
1648214429.1934004,17907,1648214429,192847598,fufi_imu_link,-0.003624097309343494,-0.010481707115280596,-0.12749438384015344,0.9917772843858956,0.0,0.0,0.0,0.0,0.0,0.0,0.0,0.0,0.0,-0.021936865523457527,-0.005300859455019236,-0.33987313508987427,0.01,0.0,0.0,0.0,0.01,0.0,0.0,0.0,0.01,0.18137332797050476,0.09060259908437729,9.718591690063477,0.01,0.0,0.0,0.0,0.01,0.0,0.0,0.0,0.01
1648214429.2313201,17908,1648214429,230716776,fufi_imu_link,-0.0032217379133462096,-0.010598145153972267,-0.13392176852327967,0.9909299973457814,0.0,0.0,0.0,0.0,0.0,0.0,0.0,0.0,0.0,0.01874467171728611,-0.004943688400089741,-0.3426407277584076,0.01,0.0,0.0,0.0,0.01,0.0,0.0,0.0,0.01,0.042755529284477234,-0.07897432893514633,9.60472583770752,0.01,0.0,0.0,0.0,0.01,0.0,0.0,0.0,0.01
1648214429.2392697,17909,1648214429,238654501,fufi_imu_link,-0.003214017811585215,-0.010528065740298593,-0.13528496110428986,0.9907455824884034,0.0,0.0,0.0,0.0,0.0,0.0,0.0,0.0,0.0,-0.00993096549063921,0.00849081203341484,-0.3464539051055908,0.01,0.0,0.0,0.0,0.01,0.0,0.0,0.0,0.01,0.05686704069375992,0.050891466438770294,9.304115295410156,0.01,0.0,0.0,0.0,0.01,0.0,0.0,0.0,0.01
1648214429.2684953,17910,1648214429,267821759,fufi_imu_link,-0.0032921058636952104,-0.010285125258454342,-0.1404484710434863,0.9900290931174432,0.0,0.0,0.0,0.0,0.0,0.0,0.0,0.0,0.0,-0.007923546247184277,0.0130646713078022,-0.357414573431015,0.01,0.0,0.0,0.0,0.01,0.0,0.0,0.0,0.01,0.01970011740922928,-0.2346421629190445,9.706111907958984,0.01,0.0,0.0,0.0,0.01,0.0,0.0,0.0,0.01
1648214429.2956822,17911,1648214429,295102486,fufi_imu_link,-0.0034420160962872945,-0.01006629258773301,-0.14531925051066868,0.9893276189967349,0.0,0.0,0.0,0.0,0.0,0.0,0.0,0.0,0.0,-0.014669078402221203,0.013172134757041931,-0.36064207553863525,0.01,0.0,0.0,0.0,0.01,0.0,0.0,0.0,0.01,0.10796777904033661,-0.1596728414297104,9.698932647705078,0.01,0.0,0.0,0.0,0.01,0.0,0.0,0.0,0.01
1648214429.3139374,17912,1648214429,313298387,fufi_imu_link,-0.0034505439571778495,-0.00996030048852583,-0.14856007922024883,0.9888472020603847,0.0,0.0,0.0,0.0,0.0,0.0,0.0,0.0,0.0,-0.00141667271964252,0.006453501991927624,-0.36016491055488586,0.01,0.0,0.0,0.0,0.01,0.0,0.0,0.0,0.01,0.0037685576826334,-0.21126046776771545,9.629201889038086,0.01,0.0,0.0,0.0,0.01,0.0,0.0,0.0,0.01
1648214429.3803031,17913,1648214429,379629548,fufi_imu_link,-0.004415800199128575,-0.009593260704580359,-0.16016294955071933,0.987034092445073,0.0,0.0,0.0,0.0,0.0,0.0,0.0,0.0,0.0,-0.03420538455247879,0.006871052552014589,-0.35376280546188354,0.01,0.0,0.0,0.0,0.01,0.0,0.0,0.0,0.01,0.14361132681369781,-0.0415126234292984,9.636463165283203,0.01,0.0,0.0,0.0,0.01,0.0,0.0,0.0,0.01
1648214429.38883,17914,1648214429,388255257,fufi_imu_link,-0.004382503226041285,-0.009608899769561365,-0.16166584439006457,0.9867890440556886,0.0,0.0,0.0,0.0,0.0,0.0,0.0,0.0,0.0,-0.007108041550964117,0.004220917820930481,-0.3528713285923004,0.01,0.0,0.0,0.0,0.01,0.0,0.0,0.0,0.01,0.28836655616760254,0.14065220952033997,9.637162208557129,0.01,0.0,0.0,0.0,0.01,0.0,0.0,0.0,0.01
1648214429.4272904,17915,1648214429,426597122,fufi_imu_link,-0.004627459021239123,-0.009665922767987792,-0.16800970676791985,0.9857270895089612,0.0,0.0,0.0,0.0,0.0,0.0,0.0,0.0,0.0,-0.01789672300219536,-0.0031769319903105497,-0.3353380858898163,0.01,0.0,0.0,0.0,0.01,0.0,0.0,0.0,0.01,0.26243388652801514,0.11562754958868027,9.571755409240723,0.01,0.0,0.0,0.0,0.01,0.0,0.0,0.0,0.01
1648214429.4550593,17916,1648214429,454455827,fufi_imu_link,-0.004768971919670195,-0.009677449130709587,-0.17246679839692536,0.9849562464068473,0.0,0.0,0.0,0.0,0.0,0.0,0.0,0.0,0.0,-0.015922201797366142,-0.0006629195995628834,-0.3245566785335541,0.01,0.0,0.0,0.0,0.01,0.0,0.0,0.0,0.01,0.25147733092308044,0.08732684701681137,9.779430389404297,0.01,0.0,0.0,0.0,0.01,0.0,0.0,0.0,0.01
1648214429.4635859,17917,1648214429,462991449,fufi_imu_link,-0.0046983195884220405,-0.009675721146044437,-0.17381671972738066,0.9847192768279507,0.0,0.0,0.0,0.0,0.0,0.0,0.0,0.0,0.0,0.0056290775537490845,-0.0034942626953125,-0.3211747407913208,0.01,0.0,0.0,0.0,0.01,0.0,0.0,0.0,0.01,0.07120753079652786,0.06084620580077171,9.41671371459961,0.01,0.0,0.0,0.0,0.01,0.0,0.0,0.0,0.01
1648214429.5102656,17918,1648214429,509586662,fufi_imu_link,-0.00508962883221423,-0.009511186708951267,-0.18137307031948774,0.9833551964415604,0.0,0.0,0.0,0.0,0.0,0.0,0.0,0.0,0.0,-0.019995270296931267,0.0033037448301911354,-0.3294100761413574,0.01,0.0,0.0,0.0,0.01,0.0,0.0,0.0,0.01,0.047867871820926666,-0.16997647285461426,9.614729881286621,0.01,0.0,0.0,0.0,0.01,0.0,0.0,0.0,0.01
1648214429.5111687,17919,1648214429,510621536,fufi_imu_link,-0.005118520035524479,-0.00944937224098217,-0.18154226058423864,0.9833244214087544,0.0,0.0,0.0,0.0,0.0,0.0,0.0,0.0,0.0,0.010474737733602524,-0.004207761492580175,-0.33378130197525024,0.01,0.0,0.0,0.0,0.01,0.0,0.0,0.0,0.01,-0.026776887476444244,-0.24523183703422546,9.701141357421875,0.01,0.0,0.0,0.0,0.01,0.0,0.0,0.0,0.01
1648214429.5303998,17920,1648214429,529223561,fufi_imu_link,-0.005261119687375163,-0.009324407622978816,-0.18467825160302517,0.9827407183112775,0.0,0.0,0.0,0.0,0.0,0.0,0.0,0.0,0.0,-0.018447300419211388,0.007270664907991886,-0.34280678629875183,0.01,0.0,0.0,0.0,0.01,0.0,0.0,0.0,0.01,0.042683154344558716,-0.15925991535186768,9.661153793334961,0.01,0.0,0.0,0.0,0.01,0.0,0.0,0.0,0.01
1648214429.53878,17921,1648214429,537861358,fufi_imu_link,-0.005293670753253575,-0.009212450189204108,-0.18618786553062278,0.9824567097539812,0.0,0.0,0.0,0.0,0.0,0.0,0.0,0.0,0.0,-0.007152895908802748,0.01332869753241539,-0.35569968819618225,0.01,0.0,0.0,0.0,0.01,0.0,0.0,0.0,0.01,-0.0047027538530528545,-0.20526708662509918,9.384641647338867,0.01,0.0,0.0,0.0,0.01,0.0,0.0,0.0,0.01
1648214429.5855956,17922,1648214429,584511934,fufi_imu_link,-0.005606402770508511,-0.008854792326150655,-0.19489055962588867,0.9807689996474928,0.0,0.0,0.0,0.0,0.0,0.0,0.0,0.0,0.0,-0.018484968692064285,0.013766534626483917,-0.3798656165599823,0.01,0.0,0.0,0.0,0.01,0.0,0.0,0.0,0.01,0.18360836803913116,-0.19911877810955048,9.8488130569458,0.01,0.0,0.0,0.0,0.01,0.0,0.0,0.0,0.01
1648214429.585858,17923,1648214429,585393304,fufi_imu_link,-0.005612412726453731,-0.008837161473654728,-0.1950548351854257,0.9807364664736714,0.0,0.0,0.0,0.0,0.0,0.0,0.0,0.0,0.0,0.001848106738179922,0.008342517539858818,-0.3803936541080475,0.01,0.0,0.0,0.0,0.01,0.0,0.0,0.0,0.01,0.13918429613113403,-0.11909638345241547,9.718424797058105,0.01,0.0,0.0,0.0,0.01,0.0,0.0,0.0,0.01
1648214429.650457,17924,1648214429,650170558,fufi_imu_link,-0.006242575314764512,-0.008933750335224713,-0.20623110923305957,0.9784426135154219,0.0,0.0,0.0,0.0,0.0,0.0,0.0,0.0,0.0,-0.023761417716741562,-0.004174706991761923,-0.35205692052841187,0.01,0.0,0.0,0.0,0.01,0.0,0.0,0.0,0.01,0.34117400646209717,0.14364716410636902,9.550786018371582,0.01,0.0,0.0,0.0,0.01,0.0,0.0,0.0,0.01
1648214429.6595938,17925,1648214429,659403469,fufi_imu_link,-0.006198861549225332,-0.008957445624518806,-0.20780939035382373,0.978108682899886,0.0,0.0,0.0,0.0,0.0,0.0,0.0,0.0,0.0,-0.00962244812399149,5.8300793170928955e-05,-0.3492022454738617,0.01,0.0,0.0,0.0,0.01,0.0,0.0,0.0,0.01,0.21518784761428833,0.20357513427734375,9.327800750732422,0.01,0.0,0.0,0.0,0.01,0.0,0.0,0.0,0.01
1648214429.7060606,17926,1648214429,705649770,fufi_imu_link,-0.006332465206989092,-0.00890501289652246,-0.21522494101008519,0.9765033668128956,0.0,0.0,0.0,0.0,0.0,0.0,0.0,0.0,0.0,-0.011747128330171108,0.0023124730214476585,-0.3280022442340851,0.01,0.0,0.0,0.0,0.01,0.0,0.0,0.0,0.01,0.18738827109336853,0.12451701611280441,9.705557823181152,0.01,0.0,0.0,0.0,0.01,0.0,0.0,0.0,0.01
1648214429.7257998,17927,1648214429,725112193,fufi_imu_link,-0.00641930503523584,-0.00889153218567668,-0.21828190723189306,0.9758241348488277,0.0,0.0,0.0,0.0,0.0,0.0,0.0,0.0,0.0,-0.011933311820030212,-0.004206877667456865,-0.321744441986084,0.01,0.0,0.0,0.0,0.01,0.0,0.0,0.0,0.01,0.007431764621287584,-0.09613711386919022,9.668709754943848,0.01,0.0,0.0,0.0,0.01,0.0,0.0,0.0,0.01
1648214429.7438037,17928,1648214429,743071981,fufi_imu_link,-0.006602302210687928,-0.0087952295130106,-0.2211370302973545,0.9751807357483019,0.0,0.0,0.0,0.0,0.0,0.0,0.0,0.0,0.0,-0.026140114292502403,-0.0001245848834514618,-0.32570451498031616,0.01,0.0,0.0,0.0,0.01,0.0,0.0,0.0,0.01,-0.06565248221158981,-0.0649845153093338,9.515425682067871,0.01,0.0,0.0,0.0,0.01,0.0,0.0,0.0,0.01
1648214429.781419,17929,1648214429,780678904,fufi_imu_link,-0.006716462201454479,-0.00858895647991126,-0.22743537384604193,0.9737321344628583,0.0,0.0,0.0,0.0,0.0,0.0,0.0,0.0,0.0,-0.010134139098227024,0.008817583322525024,-0.34361281991004944,0.01,0.0,0.0,0.0,0.01,0.0,0.0,0.0,0.01,0.04194987937808037,-0.20946940779685974,9.627569198608398,0.01,0.0,0.0,0.0,0.01,0.0,0.0,0.0,0.01
1648214429.7893186,17930,1648214429,788617214,fufi_imu_link,-0.006693437895462061,-0.008541081878555488,-0.2287813439583063,0.9734173536906534,0.0,0.0,0.0,0.0,0.0,0.0,0.0,0.0,0.0,0.00842455867677927,-0.0006618872284889221,-0.3485233187675476,0.01,0.0,0.0,0.0,0.01,0.0,0.0,0.0,0.01,-0.04304557293653488,-0.223109170794487,9.564783096313477,0.01,0.0,0.0,0.0,0.01,0.0,0.0,0.0,0.01
1648214429.818204,17931,1648214429,817733079,fufi_imu_link,-0.00678359738797515,-0.008420129148036528,-0.23395923686188688,0.9721862783019579,0.0,0.0,0.0,0.0,0.0,0.0,0.0,0.0,0.0,-0.011711625382304192,0.004211086314171553,-0.365497887134552,0.01,0.0,0.0,0.0,0.01,0.0,0.0,0.0,0.01,-0.04131687432527542,-0.07983000576496124,9.565071105957031,0.01,0.0,0.0,0.0,0.01,0.0,0.0,0.0,0.01
1648214429.8933918,17932,1648214429,892735179,fufi_imu_link,-0.00687192490973613,-0.008116357799141848,-0.24714717227570784,0.968919592443167,0.0,0.0,0.0,0.0,0.0,0.0,0.0,0.0,0.0,-0.008313223719596863,0.009123146533966064,-0.3622134029865265,0.01,0.0,0.0,0.0,0.01,0.0,0.0,0.0,0.01,0.19952785968780518,-0.006448432803153992,9.4136962890625,0.01,0.0,0.0,0.0,0.01,0.0,0.0,0.0,0.01
1648214429.9303043,17933,1648214429,929683052,fufi_imu_link,-0.006811286848593475,-0.00802857532482103,-0.2533589493213967,0.9673150423458109,0.0,0.0,0.0,0.0,0.0,0.0,0.0,0.0,0.0,-0.0046056341379880905,0.008299880661070347,-0.34718745946884155,0.01,0.0,0.0,0.0,0.01,0.0,0.0,0.0,0.01,0.277886301279068,0.14879795908927917,9.839794158935547,0.01,0.0,0.0,0.0,0.01,0.0,0.0,0.0,0.01
1648214429.9390728,17934,1648214429,938262172,fufi_imu_link,-0.006737551816383118,-0.00813086281797639,-0.25476036737133373,0.9669465598895214,0.0,0.0,0.0,0.0,0.0,0.0,0.0,0.0,0.0,0.007469364907592535,-0.008007131516933441,-0.3377796709537506,0.01,0.0,0.0,0.0,0.01,0.0,0.0,0.0,0.01,0.3367094099521637,0.11246943473815918,9.676316261291504,0.01,0.0,0.0,0.0,0.01,0.0,0.0,0.0,0.01
1648214429.9771185,17935,1648214429,976434183,fufi_imu_link,-0.006948006281405379,-0.007899862627029342,-0.2608299870918882,0.965327423837546,0.0,0.0,0.0,0.0,0.0,0.0,0.0,0.0,0.0,-0.01759425550699234,0.010080432519316673,-0.3289395272731781,0.01,0.0,0.0,0.0,0.01,0.0,0.0,0.0,0.01,0.1600186824798584,-0.038589708507061005,9.512408256530762,0.01,0.0,0.0,0.0,0.01,0.0,0.0,0.0,0.01
1648214430.005318,17936,1648214430,4568977,fufi_imu_link,-0.007049916602209668,-0.007675856706438888,-0.26530718731682157,0.9641076061611386,0.0,0.0,0.0,0.0,0.0,0.0,0.0,0.0,0.0,-0.015766102820634842,0.015419037081301212,-0.3296535909175873,0.01,0.0,0.0,0.0,0.01,0.0,0.0,0.0,0.01,0.1984224170446396,-0.010455232113599777,9.536972045898438,0.01,0.0,0.0,0.0,0.01,0.0,0.0,0.0,0.01
1648214430.0136402,17937,1648214430,13103423,fufi_imu_link,-0.006997797629407057,-0.0076924846434208985,-0.2666585314976632,0.9637349656870703,0.0,0.0,0.0,0.0,0.0,0.0,0.0,0.0,0.0,0.005421982612460852,-0.001146234106272459,-0.32854360342025757,0.01,0.0,0.0,0.0,0.01,0.0,0.0,0.0,0.01,0.14288488030433655,-0.019446631893515587,9.635759353637695,0.01,0.0,0.0,0.0,0.01,0.0,0.0,0.0,0.01
1648214430.0605373,17938,1648214430,59692463,fufi_imu_link,-0.007460715079844014,-0.007483300643817785,-0.27429025878625457,0.9615888892229055,0.0,0.0,0.0,0.0,0.0,0.0,0.0,0.0,0.0,-0.023444898426532745,0.0035389717668294907,-0.3401368260383606,0.01,0.0,0.0,0.0,0.01,0.0,0.0,0.0,0.01,0.05252135545015335,-0.20746587216854095,9.387579917907715,0.01,0.0,0.0,0.0,0.01,0.0,0.0,0.0,0.01
1648214430.061478,17939,1648214430,60617392,fufi_imu_link,-0.007501752911818053,-0.007467161755912738,-0.2744414669165642,0.9615455508894238,0.0,0.0,0.0,0.0,0.0,0.0,0.0,0.0,0.0,-0.011319920420646667,0.005003174766898155,-0.34084683656692505,0.01,0.0,0.0,0.0,0.01,0.0,0.0,0.0,0.01,0.16638681292533875,-0.25170978903770447,9.569091796875,0.01,0.0,0.0,0.0,0.01,0.0,0.0,0.0,0.01
1648214430.0800273,17940,1648214430,79250958,fufi_imu_link,-0.007647226894658723,-0.007232251115148379,-0.2775491495472678,0.9606537794909347,0.0,0.0,0.0,0.0,0.0,0.0,0.0,0.0,0.0,-0.02028474397957325,0.020204775035381317,-0.3468005657196045,0.01,0.0,0.0,0.0,0.01,0.0,0.0,0.0,0.01,0.11479434370994568,-0.2641669511795044,9.196996688842773,0.01,0.0,0.0,0.0,0.01,0.0,0.0,0.0,0.01
1648214430.0884655,17941,1648214430,87806361,fufi_imu_link,-0.007665762625770317,-0.007124139181110837,-0.2789974515005715,0.9602348175214643,0.0,0.0,0.0,0.0,0.0,0.0,0.0,0.0,0.0,-0.003026580670848489,0.020025692880153656,-0.35246559977531433,0.01,0.0,0.0,0.0,0.01,0.0,0.0,0.0,0.01,0.09066705405712128,-0.2845054566860199,9.453537940979004,0.01,0.0,0.0,0.0,0.01,0.0,0.0,0.0,0.01
1648214430.1352324,17942,1648214430,134537942,fufi_imu_link,-0.008007221646589022,-0.0071105463796139225,-0.28697222102255954,0.9578790471103673,0.0,0.0,0.0,0.0,0.0,0.0,0.0,0.0,0.0,-0.01612130180001259,-0.0023457733914256096,-0.35579293966293335,0.01,0.0,0.0,0.0,0.01,0.0,0.0,0.0,0.01,0.1085166335105896,-0.21764671802520752,9.376325607299805,0.01,0.0,0.0,0.0,0.01,0.0,0.0,0.0,0.01
1648214430.136065,17943,1648214430,135484726,fufi_imu_link,-0.00803280257933983,-0.007109387597073867,-0.2871328529466519,0.9578307029164562,0.0,0.0,0.0,0.0,0.0,0.0,0.0,0.0,0.0,-0.002637696685269475,-0.008817772381007671,-0.35487186908721924,0.01,0.0,0.0,0.0,0.01,0.0,0.0,0.0,0.01,0.17798170447349548,-0.20302614569664001,9.527013778686523,0.01,0.0,0.0,0.0,0.01,0.0,0.0,0.0,0.01
1648214430.201297,17944,1648214430,200537007,fufi_imu_link,-0.008205838421224965,-0.007366525588427863,-0.29759581602627083,0.9546282673377202,0.0,0.0,0.0,0.0,0.0,0.0,0.0,0.0,0.0,-0.006426714360713959,-0.005150301847606897,-0.336396723985672,0.01,0.0,0.0,0.0,0.01,0.0,0.0,0.0,0.01,0.424589067697525,-0.03920917212963104,9.300748825073242,0.01,0.0,0.0,0.0,0.01,0.0,0.0,0.0,0.01
1648214430.2108076,17945,1648214430,210217402,fufi_imu_link,-0.008218619737619458,-0.007460005961805767,-0.2991526066038476,0.9541407236685697,0.0,0.0,0.0,0.0,0.0,0.0,0.0,0.0,0.0,-0.007831128314137459,-0.00764718372374773,-0.33690154552459717,0.01,0.0,0.0,0.0,0.01,0.0,0.0,0.0,0.01,0.3597601652145386,0.03775511309504509,9.518915176391602,0.01,0.0,0.0,0.0,0.01,0.0,0.0,0.0,0.01
1648214430.2560816,17946,1648214430,255696569,fufi_imu_link,-0.008027633487651741,-0.007573625295037657,-0.3068165561452986,0.9517046801269905,0.0,0.0,0.0,0.0,0.0,0.0,0.0,0.0,0.0,0.0044161053374409676,0.003744841553270817,-0.3536612391471863,0.01,0.0,0.0,0.0,0.01,0.0,0.0,0.0,0.01,0.535322368144989,0.048480477184057236,9.603443145751953,0.01,0.0,0.0,0.0,0.01,0.0,0.0,0.0,0.01
1648214430.2754748,17947,1648214430,275077419,fufi_imu_link,-0.008043046159877543,-0.007722521524156139,-0.31011407298472377,0.9506339641558177,0.0,0.0,0.0,0.0,0.0,0.0,0.0,0.0,0.0,-0.004847991280257702,0.0012464071623981,-0.357623815536499,0.01,0.0,0.0,0.0,0.01,0.0,0.0,0.0,0.01,0.71916264295578,0.07061392068862915,9.519737243652344,0.01,0.0,0.0,0.0,0.01,0.0,0.0,0.0,0.01
1648214430.2932634,17948,1648214430,292940599,fufi_imu_link,-0.008087498575946685,-0.008031963224388766,-0.313073291815568,0.9496605677215993,0.0,0.0,0.0,0.0,0.0,0.0,0.0,0.0,0.0,-0.003530955407768488,-0.014691894873976707,-0.34869441390037537,0.01,0.0,0.0,0.0,0.01,0.0,0.0,0.0,0.01,0.8299926519393921,0.11468318849802017,9.84280014038086,0.01,0.0,0.0,0.0,0.01,0.0,0.0,0.0,0.01
1648214430.3305197,17949,1648214430,330240963,fufi_imu_link,-0.008042489123168645,-0.00824436671618939,-0.3179463893914324,0.948038734577393,0.0,0.0,0.0,0.0,0.0,0.0,0.0,0.0,0.0,-0.006173642817884684,0.008943639695644379,-0.27510809898376465,0.01,0.0,0.0,0.0,0.01,0.0,0.0,0.0,0.01,1.4218025207519531,0.5590877532958984,9.33156967163086,0.01,0.0,0.0,0.0,0.01,0.0,0.0,0.0,0.01
1648214430.3395119,17950,1648214430,339099056,fufi_imu_link,-0.00805226262130859,-0.008592189174552853,-0.3189708168559963,0.9476913808545927,0.0,0.0,0.0,0.0,0.0,0.0,0.0,0.0,0.0,-0.030396105721592903,0.01432722993195057,-0.24288435280323029,0.01,0.0,0.0,0.0,0.01,0.0,0.0,0.0,0.01,1.6833194494247437,0.7622233629226685,9.387625694274902,0.01,0.0,0.0,0.0,0.01,0.0,0.0,0.0,0.01
1648214430.3503046,17951,1648214430,349896514,fufi_imu_link,-0.007910238081241519,-0.00891512209286587,-0.31987322835478493,0.947385384367658,0.0,0.0,0.0,0.0,0.0,0.0,0.0,0.0,0.0,-2.4817418307065964e-06,0.011019013822078705,-0.17572472989559174,0.01,0.0,0.0,0.0,0.01,0.0,0.0,0.0,0.01,1.4934340715408325,0.826143741607666,10.027284622192383,0.01,0.0,0.0,0.0,0.01,0.0,0.0,0.0,0.01
1648214430.3685105,17952,1648214430,367860939,fufi_imu_link,-0.007718637860715002,-0.009421664783153103,-0.3207746104398917,0.9470772429741013,0.0,0.0,0.0,0.0,0.0,0.0,0.0,0.0,0.0,0.011441348120570183,-0.0065084719099104404,-0.10575402528047562,0.01,0.0,0.0,0.0,0.01,0.0,0.0,0.0,0.01,1.6526445150375366,0.8397966623306274,9.938908576965332,0.01,0.0,0.0,0.0,0.01,0.0,0.0,0.0,0.01
1648214430.4065685,17953,1648214430,405552915,fufi_imu_link,-0.007912348563005964,-0.00947030838840817,-0.3194245698634141,0.9475313462713617,0.0,0.0,0.0,0.0,0.0,0.0,0.0,0.0,0.0,-0.013593393377959728,0.006620428524911404,0.07588876783847809,0.01,0.0,0.0,0.0,0.01,0.0,0.0,0.0,0.01,1.1397442817687988,0.3145098090171814,9.589203834533691,0.01,0.0,0.0,0.0,0.01,0.0,0.0,0.0,0.01
1648214430.414108,17954,1648214430,413438533,fufi_imu_link,-0.007894209387898768,-0.00964606960459643,-0.3190725092348113,0.9476483359611436,0.0,0.0,0.0,0.0,0.0,0.0,0.0,0.0,0.0,-0.017828328534960747,0.0149522814899683,0.09505581855773926,0.01,0.0,0.0,0.0,0.01,0.0,0.0,0.0,0.01,1.0805871486663818,0.4860997796058655,9.64619255065918,0.01,0.0,0.0,0.0,0.01,0.0,0.0,0.0,0.01
1648214430.4433596,17955,1648214430,442710191,fufi_imu_link,-0.0076898004603735935,-0.009666549593268348,-0.31724993387986156,0.9482615167985381,0.0,0.0,0.0,0.0,0.0,0.0,0.0,0.0,0.0,0.01730075106024742,0.004365483298897743,0.131198450922966,0.01,0.0,0.0,0.0,0.01,0.0,0.0,0.0,0.01,0.326213002204895,-0.19938921928405762,9.658564567565918,0.01,0.0,0.0,0.0,0.01,0.0,0.0,0.0,0.01
1648214430.4803162,17956,1648214430,479715906,fufi_imu_link,-0.007527923889064222,-0.009852988612970874,-0.314764784444367,0.9490887100008114,0.0,0.0,0.0,0.0,0.0,0.0,0.0,0.0,0.0,0.012874509207904339,-0.007465754635632038,0.14138942956924438,0.01,0.0,0.0,0.0,0.01,0.0,0.0,0.0,0.01,0.22385174036026,-0.060503244400024414,9.808330535888672,0.01,0.0,0.0,0.0,0.01,0.0,0.0,0.0,0.01
1648214430.4885004,17957,1648214430,488107997,fufi_imu_link,-0.00766846218473455,-0.009753185714909804,-0.3142758387580254,0.9492506345686956,0.0,0.0,0.0,0.0,0.0,0.0,0.0,0.0,0.0,-0.02556793950498104,-0.0037006668280810118,0.12283581495285034,0.01,0.0,0.0,0.0,0.01,0.0,0.0,0.0,0.01,-0.02079477533698082,-0.2829311192035675,9.784013748168945,0.01,0.0,0.0,0.0,0.01,0.0,0.0,0.0,0.01
1648214430.5273771,17958,1648214430,526707477,fufi_imu_link,-0.007371737006887858,-0.009808818595183103,-0.31341275995763523,0.9495377225086984,0.0,0.0,0.0,0.0,0.0,0.0,0.0,0.0,0.0,0.019058343023061752,-0.004840525332838297,0.04682815819978714,0.01,0.0,0.0,0.0,0.01,0.0,0.0,0.0,0.01,-0.274506539106369,-0.2972254455089569,9.609945297241211,0.01,0.0,0.0,0.0,0.01,0.0,0.0,0.0,0.01
1648214430.5550513,17959,1648214430,554565217,fufi_imu_link,-0.007026747365004293,-0.009843990481847325,-0.3133022505336912,0.9495764426750413,0.0,0.0,0.0,0.0,0.0,0.0,0.0,0.0,0.0,0.02877897210419178,-0.0013624737039208412,0.007991509512066841,0.01,0.0,0.0,0.0,0.01,0.0,0.0,0.0,0.01,-0.13414032757282257,-0.3001447021961212,9.551966667175293,0.01,0.0,0.0,0.0,0.01,0.0,0.0,0.0,0.01
1648214430.5639124,17960,1648214430,563177856,fufi_imu_link,-0.007016723906829921,-0.009701466455919577,-0.31337314903109376,0.9495545885311472,0.0,0.0,0.0,0.0,0.0,0.0,0.0,0.0,0.0,0.005170511081814766,-0.0004634018987417221,-0.017560429871082306,0.01,0.0,0.0,0.0,0.01,0.0,0.0,0.0,0.01,-0.3268321752548218,-0.2994702160358429,9.833049774169922,0.01,0.0,0.0,0.0,0.01,0.0,0.0,0.0,0.01
1648214430.6103227,17961,1648214430,609779625,fufi_imu_link,-0.0072417058263493815,-0.00948879159633049,-0.3146659258977859,0.9491274285414236,0.0,0.0,0.0,0.0,0.0,0.0,0.0,0.0,0.0,-0.012044495902955532,0.001325421966612339,-0.05831906944513321,0.01,0.0,0.0,0.0,0.01,0.0,0.0,0.0,0.01,-0.18428941071033478,-0.1317068636417389,9.492725372314453,0.01,0.0,0.0,0.0,0.01,0.0,0.0,0.0,0.01
1648214430.6112,17962,1648214430,610591593,fufi_imu_link,-0.007222653819363377,-0.009383947611088059,-0.3146887935844736,0.9491210344267935,0.0,0.0,0.0,0.0,0.0,0.0,0.0,0.0,0.0,-0.010084770619869232,0.002157413400709629,-0.05961533635854721,0.01,0.0,0.0,0.0,0.01,0.0,0.0,0.0,0.01,-0.18156006932258606,-0.11474055051803589,9.391416549682617,0.01,0.0,0.0,0.0,0.01,0.0,0.0,0.0,0.01
1648214430.629847,17963,1648214430,629232847,fufi_imu_link,-0.007197441305718166,-0.00929677789201269,-0.31523211847126575,0.9489417675724866,0.0,0.0,0.0,0.0,0.0,0.0,0.0,0.0,0.0,0.002033468335866928,0.0026783389039337635,-0.061463065445423126,0.01,0.0,0.0,0.0,0.01,0.0,0.0,0.0,0.01,-0.04581286385655403,-0.18202011287212372,9.430094718933105,0.01,0.0,0.0,0.0,0.01,0.0,0.0,0.0,0.01
1648214430.6377964,17964,1648214430,637428151,fufi_imu_link,-0.00715585249177792,-0.009245207941470398,-0.3154604461708231,0.9488667065541609,0.0,0.0,0.0,0.0,0.0,0.0,0.0,0.0,0.0,0.003995596896857023,0.005352531094104052,-0.05871013551950455,0.01,0.0,0.0,0.0,0.01,0.0,0.0,0.0,0.01,0.054755378514528275,-0.058321140706539154,9.574159622192383,0.01,0.0,0.0,0.0,0.01,0.0,0.0,0.0,0.01
1648214430.6849585,17965,1648214430,684537754,fufi_imu_link,-0.007277657821510819,-0.008938609449350484,-0.31629361921371996,0.9485913152682937,0.0,0.0,0.0,0.0,0.0,0.0,0.0,0.0,0.0,-0.010504601523280144,0.010179031640291214,-0.03709215670824051,0.01,0.0,0.0,0.0,0.01,0.0,0.0,0.0,0.01,0.14512138068675995,0.0189706701785326,9.591782569885254,0.01,0.0,0.0,0.0,0.01,0.0,0.0,0.0,0.01
1648214430.6853435,17966,1648214430,685022325,fufi_imu_link,-0.00727505485309197,-0.00889248670501564,-0.3163006655894736,0.9485894191929097,0.0,0.0,0.0,0.0,0.0,0.0,0.0,0.0,0.0,-0.008491701446473598,0.00658764922991395,-0.03112419694662094,0.01,0.0,0.0,0.0,0.01,0.0,0.0,0.0,0.01,0.04211010783910751,-0.11814182996749878,9.67158031463623,0.01,0.0,0.0,0.0,0.01,0.0,0.0,0.0,0.01
1648214430.713491,17967,1648214430,712948473,fufi_imu_link,-0.0074461239149580085,-0.008703089312490201,-0.31655944449863055,0.9485035211182827,0.0,0.0,0.0,0.0,0.0,0.0,0.0,0.0,0.0,-0.012998916208744049,0.007453199941664934,-0.01939876191318035,0.01,0.0,0.0,0.0,0.01,0.0,0.0,0.0,0.01,0.11561312526464462,-0.24555978178977966,9.450231552124023,0.01,0.0,0.0,0.0,0.01,0.0,0.0,0.0,0.01
1648214430.7517552,17968,1648214430,750678206,fufi_imu_link,-0.007221903596491863,-0.008870661025087042,-0.3163592650437463,0.948570488104285,0.0,0.0,0.0,0.0,0.0,0.0,0.0,0.0,0.0,0.011216907761991024,-0.0037183454260230064,0.01109091006219387,0.01,0.0,0.0,0.0,0.01,0.0,0.0,0.0,0.01,0.2831907570362091,0.1408117562532425,9.810335159301758,0.01,0.0,0.0,0.0,0.01,0.0,0.0,0.0,0.01
1648214430.7607396,17969,1648214430,760129123,fufi_imu_link,-0.0071267962408356825,-0.0089570011788081,-0.31627960969673397,0.9485969583523375,0.0,0.0,0.0,0.0,0.0,0.0,0.0,0.0,0.0,0.01479162648320198,-0.010753516107797623,0.017673952504992485,0.01,0.0,0.0,0.0,0.01,0.0,0.0,0.0,0.01,0.21699926257133484,0.11290879547595978,9.845304489135742,0.01,0.0,0.0,0.0,0.01,0.0,0.0,0.0,0.01
1648214430.8253596,17970,1648214430,825101499,fufi_imu_link,-0.007198554887298986,-0.0085069506117611,-0.3158797556223125,0.9487337838333849,0.0,0.0,0.0,0.0,0.0,0.0,0.0,0.0,0.0,-0.006255695596337318,0.01248253509402275,0.013125384226441383,0.01,0.0,0.0,0.0,0.01,0.0,0.0,0.0,0.01,0.20723623037338257,-0.08852223306894302,9.482674598693848,0.01,0.0,0.0,0.0,0.01,0.0,0.0,0.0,0.01
1648214430.8432417,17971,1648214430,842992420,fufi_imu_link,-0.00733667902588996,-0.008491928036104917,-0.31579857493904256,0.9487598855166521,0.0,0.0,0.0,0.0,0.0,0.0,0.0,0.0,0.0,-0.011246082372963428,-0.00024934904649853706,0.009621387347579002,0.01,0.0,0.0,0.0,0.01,0.0,0.0,0.0,0.01,0.3036770224571228,-0.21287396550178528,9.576387405395508,0.01,0.0,0.0,0.0,0.01,0.0,0.0,0.0,0.01
1648214430.8806489,17972,1648214430,880358157,fufi_imu_link,-0.007031626327963561,-0.00857809726534146,-0.31588353584238066,0.9487331364837035,0.0,0.0,0.0,0.0,0.0,0.0,0.0,0.0,0.0,0.0183853879570961,0.001568314153701067,-0.004963662475347519,0.01,0.0,0.0,0.0,0.01,0.0,0.0,0.0,0.01,0.25170063972473145,-0.1808226853609085,9.523301124572754,0.01,0.0,0.0,0.0,0.01,0.0,0.0,0.0,0.01
1648214430.8895473,17973,1648214430,889166712,fufi_imu_link,-0.0069952408806873536,-0.008565901488764145,-0.31592071428978447,0.9487211361719199,0.0,0.0,0.0,0.0,0.0,0.0,0.0,0.0,0.0,0.01609719544649124,0.006782421376556158,-0.009099820628762245,0.01,0.0,0.0,0.0,0.01,0.0,0.0,0.0,0.01,0.2217552214860916,-0.22859451174736023,9.506274223327637,0.01,0.0,0.0,0.0,0.01,0.0,0.0,0.0,0.01
1648214430.900067,17974,1648214430,899795597,fufi_imu_link,-0.0069392052379446375,-0.00855113392832156,-0.31598642593583837,0.9486997966498679,0.0,0.0,0.0,0.0,0.0,0.0,0.0,0.0,0.0,0.01589047908782959,0.011000450700521469,-0.01317362766712904,0.01,0.0,0.0,0.0,0.01,0.0,0.0,0.0,0.01,0.30066463351249695,-0.2158336043357849,9.648513793945312,0.01,0.0,0.0,0.0,0.01,0.0,0.0,0.0,0.01
1648214430.918166,17975,1648214430,917770952,fufi_imu_link,-0.006906350349796756,-0.008487740675583364,-0.31610214356685595,0.948662055431495,0.0,0.0,0.0,0.0,0.0,0.0,0.0,0.0,0.0,0.003328177146613598,0.011263357475399971,-0.013543562032282352,0.01,0.0,0.0,0.0,0.01,0.0,0.0,0.0,0.01,0.31794503331184387,-0.15365879237651825,9.777698516845703,0.01,0.0,0.0,0.0,0.01,0.0,0.0,0.0,0.01
1648214430.9561844,17976,1648214430,955601976,fufi_imu_link,-0.007476961500587481,-0.008854244644955695,-0.31591594164065595,0.9487164039984678,0.0,0.0,0.0,0.0,0.0,0.0,0.0,0.0,0.0,-0.02390209212899208,-0.025537610054016113,0.010420529171824455,0.01,0.0,0.0,0.0,0.01,0.0,0.0,0.0,0.01,0.3812112808227539,0.02682659402489662,9.580550193786621,0.01,0.0,0.0,0.0,0.01,0.0,0.0,0.0,0.01
1648214430.964035,17977,1648214430,963418372,fufi_imu_link,-0.007599507347552873,-0.008984654623512448,-0.3158551755851567,0.948734436776404,0.0,0.0,0.0,0.0,0.0,0.0,0.0,0.0,0.0,-0.02951650694012642,-0.03131981939077377,0.016553642228245735,0.01,0.0,0.0,0.0,0.01,0.0,0.0,0.0,0.01,0.3670451045036316,0.07329681515693665,9.679117202758789,0.01,0.0,0.0,0.0,0.01,0.0,0.0,0.0,0.01
1648214430.9940913,17978,1648214430,992709778,fufi_imu_link,-0.008109958299220687,-0.009128491632661271,-0.31538286888131645,0.9488859495392941,0.0,0.0,0.0,0.0,0.0,0.0,0.0,0.0,0.0,-0.028966831043362617,-0.019573159515857697,0.03409605473279953,0.01,0.0,0.0,0.0,0.01,0.0,0.0,0.0,0.01,0.2641500234603882,-0.12680669128894806,9.527667999267578,0.01,0.0,0.0,0.0,0.01,0.0,0.0,0.0,0.01
1648214431.0205033,17979,1648214431,19898136,fufi_imu_link,-0.007729957680211153,-0.009121478940958534,-0.3150185797590738,0.9490101900310491,0.0,0.0,0.0,0.0,0.0,0.0,0.0,0.0,0.0,0.023157313466072083,0.00910107884556055,0.02813705988228321,0.01,0.0,0.0,0.0,0.01,0.0,0.0,0.0,0.01,0.2051357626914978,0.09539492428302765,9.403343200683594,0.01,0.0,0.0,0.0,0.01,0.0,0.0,0.0,0.01
1648214431.0390496,17980,1648214431,38381115,fufi_imu_link,-0.007468929226552363,-0.009236174246539396,-0.31481782697769145,0.9490777860631555,0.0,0.0,0.0,0.0,0.0,0.0,0.0,0.0,0.0,0.024214601144194603,0.00022699544206261635,0.02274373732507229,0.01,0.0,0.0,0.0,0.01,0.0,0.0,0.0,0.01,0.334070086479187,0.16185453534126282,9.80888843536377,0.01,0.0,0.0,0.0,0.01,0.0,0.0,0.0,0.01
1648214431.0769262,17981,1648214431,76270686,fufi_imu_link,-0.007969476108320134,-0.008902344832475288,-0.314995964555477,0.9490177964721249,0.0,0.0,0.0,0.0,0.0,0.0,0.0,0.0,0.0,-0.03310679644346237,0.007987411692738533,-0.009497120976448059,0.01,0.0,0.0,0.0,0.01,0.0,0.0,0.0,0.01,0.18022973835468292,0.08182881772518158,9.766390800476074,0.01,0.0,0.0,0.0,0.01,0.0,0.0,0.0,0.01
1648214431.1061504,17982,1648214431,104595984,fufi_imu_link,-0.008158461632742666,-0.008846260857645718,-0.3153227228709502,0.9489081955668186,0.0,0.0,0.0,0.0,0.0,0.0,0.0,0.0,0.0,-0.018711354583501816,0.003946787677705288,-0.024041932076215744,0.01,0.0,0.0,0.0,0.01,0.0,0.0,0.0,0.01,0.4436892867088318,0.1510789543390274,9.630516052246094,0.01,0.0,0.0,0.0,0.01,0.0,0.0,0.0,0.01
1648214431.1137836,17983,1648214431,113048034,fufi_imu_link,-0.008158184778818805,-0.008915680478831454,-0.3154285287512318,0.9488723823109972,0.0,0.0,0.0,0.0,0.0,0.0,0.0,0.0,0.0,-0.008009372279047966,-0.0003276914358139038,-0.026129789650440216,0.01,0.0,0.0,0.0,0.01,0.0,0.0,0.0,0.01,0.44674479961395264,0.1125447228550911,9.401447296142578,0.01,0.0,0.0,0.0,0.01,0.0,0.0,0.0,0.01
1648214431.1604748,17984,1648214431,159754343,fufi_imu_link,-0.008442472719022933,-0.009090281829866357,-0.31584440015356785,0.9487298911293326,0.0,0.0,0.0,0.0,0.0,0.0,0.0,0.0,0.0,-0.008500979281961918,-0.0065439906902611256,-0.018751339986920357,0.01,0.0,0.0,0.0,0.01,0.0,0.0,0.0,0.01,0.6092773675918579,-0.18138934671878815,9.726466178894043,0.01,0.0,0.0,0.0,0.01,0.0,0.0,0.0,0.01
1648214431.1800878,17985,1648214431,179334308,fufi_imu_link,-0.008610684571446807,-0.009144884756534596,-0.31603088579652744,0.9486657506290944,0.0,0.0,0.0,0.0,0.0,0.0,0.0,0.0,0.0,-0.010012426413595676,0.004121149890124798,-0.01998654007911682,0.01,0.0,0.0,0.0,0.01,0.0,0.0,0.0,0.01,0.770197868347168,-0.2790753245353699,9.575758934020996,0.01,0.0,0.0,0.0,0.01,0.0,0.0,0.0,0.01
1648214431.1884801,17986,1648214431,187902867,fufi_imu_link,-0.008711985747558887,-0.00921374386079204,-0.3161064599933623,0.9486389798963918,0.0,0.0,0.0,0.0,0.0,0.0,0.0,0.0,0.0,-0.005491405725479126,0.004594115540385246,-0.018618326634168625,0.01,0.0,0.0,0.0,0.01,0.0,0.0,0.0,0.01,0.6512319445610046,-0.29360026121139526,9.364107131958008,0.01,0.0,0.0,0.0,0.01,0.0,0.0,0.0,0.01
1648214431.235259,17987,1648214431,234617567,fufi_imu_link,-0.00837357912376859,-0.009321462902967445,-0.3164192843470707,0.9485366782551397,0.0,0.0,0.0,0.0,0.0,0.0,0.0,0.0,0.0,0.014261935837566853,0.006049768999218941,-0.014185670763254166,0.01,0.0,0.0,0.0,0.01,0.0,0.0,0.0,0.01,0.7586395144462585,-0.026822201907634735,9.882173538208008,0.01,0.0,0.0,0.0,0.01,0.0,0.0,0.0,0.01
1648214431.236165,17988,1648214431,235529500,fufi_imu_link,-0.00838654761067736,-0.009424989742609463,-0.3164243491810729,0.9485338510737822,0.0,0.0,0.0,0.0,0.0,0.0,0.0,0.0,0.0,0.02537902072072029,0.00045794667676091194,-0.01144702173769474,0.01,0.0,0.0,0.0,0.01,0.0,0.0,0.0,0.01,0.6362096667289734,-0.06386865675449371,9.928879737854004,0.01,0.0,0.0,0.0,0.01,0.0,0.0,0.0,0.01
1648214431.26354,17989,1648214431,262926398,fufi_imu_link,-0.008821416751611329,-0.009186450257498027,-0.3163415019695603,0.948559879960039,0.0,0.0,0.0,0.0,0.0,0.0,0.0,0.0,0.0,-0.03681859001517296,0.014711876399815083,0.0068988315761089325,0.01,0.0,0.0,0.0,0.01,0.0,0.0,0.0,0.01,0.642704427242279,-0.037619780749082565,9.420210838317871,0.01,0.0,0.0,0.0,0.01,0.0,0.0,0.0,0.01
1648214431.3012698,17990,1648214431,300573774,fufi_imu_link,-0.008716939357316208,-0.009221081103265921,-0.31584002114075266,0.9487276045722169,0.0,0.0,0.0,0.0,0.0,0.0,0.0,0.0,0.0,0.005683439318090677,0.003772466443479061,0.028075585141777992,0.01,0.0,0.0,0.0,0.01,0.0,0.0,0.0,0.01,0.49904316663742065,-0.06746130436658859,9.525625228881836,0.01,0.0,0.0,0.0,0.01,0.0,0.0,0.0,0.01
1648214431.3108156,17991,1648214431,310194500,fufi_imu_link,-0.00860604986952912,-0.009335886047628306,-0.31567929559488966,0.9487809860394879,0.0,0.0,0.0,0.0,0.0,0.0,0.0,0.0,0.0,0.02318153716623783,-0.0016571255400776863,0.03508360683917999,0.01,0.0,0.0,0.0,0.01,0.0,0.0,0.0,0.01,0.4727380573749542,0.021554412320256233,9.493352890014648,0.01,0.0,0.0,0.0,0.01,0.0,0.0,0.0,0.01
1648214431.3766656,17992,1648214431,375503475,fufi_imu_link,-0.008384414827000333,-0.009334830845408166,-0.3150733841641809,0.9489843650516203,0.0,0.0,0.0,0.0,0.0,0.0,0.0,0.0,0.0,0.0073371888138353825,-0.00010041147470474243,0.01946992799639702,0.01,0.0,0.0,0.0,0.01,0.0,0.0,0.0,0.01,-0.05034058541059494,-0.18130610883235931,9.608514785766602,0.01,0.0,0.0,0.0,0.01,0.0,0.0,0.0,0.01
1648214431.3937612,17993,1648214431,393065687,fufi_imu_link,-0.008250694640085394,-0.009295939561027257,-0.3149780852838546,0.9490175537557515,0.0,0.0,0.0,0.0,0.0,0.0,0.0,0.0,0.0,0.01628853939473629,-0.0027915770187973976,0.011197373270988464,0.01,0.0,0.0,0.0,0.01,0.0,0.0,0.0,0.01,-0.17491863667964935,-0.19848406314849854,9.615949630737305,0.01,0.0,0.0,0.0,0.01,0.0,0.0,0.0,0.01
