Time,header.seq,header.stamp.secs,header.stamp.nsecs,header.frame_id,orientation.x,orientation.y,orientation.z,orientation.w,orientation_covariance_0,orientation_covariance_1,orientation_covariance_2,orientation_covariance_3,orientation_covariance_4,orientation_covariance_5,orientation_covariance_6,orientation_covariance_7,orientation_covariance_8,angular_velocity.x,angular_velocity.y,angular_velocity.z,angular_velocity_covariance_0,angular_velocity_covariance_1,angular_velocity_covariance_2,angular_velocity_covariance_3,angular_velocity_covariance_4,angular_velocity_covariance_5,angular_velocity_covariance_6,angular_velocity_covariance_7,angular_velocity_covariance_8,linear_acceleration.x,linear_acceleration.y,linear_acceleration.z,linear_acceleration_covariance_0,linear_acceleration_covariance_1,linear_acceleration_covariance_2,linear_acceleration_covariance_3,linear_acceleration_covariance_4,linear_acceleration_covariance_5,linear_acceleration_covariance_6,linear_acceleration_covariance_7,linear_acceleration_covariance_8
1648214227.9301636,9933,1648214227,929864089,fufi_imu_link,-0.0037255662069563705,-0.01005783815663475,0.007607137794144834,0.9999135420138251,0.0,0.0,0.0,0.0,0.0,0.0,0.0,0.0,0.0,-0.00031574140302836895,-0.00014755921438336372,9.99346375465393e-05,0.01,0.0,0.0,0.0,0.01,0.0,0.0,0.0,0.01,0.18004964292049408,-0.08331489562988281,9.610361099243164,0.01,0.0,0.0,0.0,0.01,0.0,0.0,0.0,0.01
1648214227.9497533,9934,1648214227,949388727,fufi_imu_link,-0.0037238140162065966,-0.010066915095738968,0.007608046087611212,0.9999134502867519,0.0,0.0,0.0,0.0,0.0,0.0,0.0,0.0,0.0,0.000601225474383682,-0.0006769667379558086,8.118152618408203e-05,0.01,0.0,0.0,0.0,0.01,0.0,0.0,0.0,0.01,0.20286905765533447,-0.08921227604150772,9.628528594970703,0.01,0.0,0.0,0.0,0.01,0.0,0.0,0.0,0.01
1648214227.9675577,9935,1648214227,967317234,fufi_imu_link,-0.003725879164858555,-0.010067456965681777,0.00761206707685391,0.9999134065355413,0.0,0.0,0.0,0.0,0.0,0.0,0.0,0.0,0.0,-0.0003096024738624692,-0.00012778164818882942,0.00045181065797805786,0.01,0.0,0.0,0.0,0.01,0.0,0.0,0.0,0.01,0.1898803859949112,-0.06994795054197311,9.570295333862305,0.01,0.0,0.0,0.0,0.01,0.0,0.0,0.0,0.01
1648214228.0058506,9936,1648214228,5137781,fufi_imu_link,-0.0037132334163754127,-0.010094880722973326,0.007592414083700372,0.9999133265084361,0.0,0.0,0.0,0.0,0.0,0.0,0.0,0.0,0.0,0.0007902373326942325,-0.0017772223800420761,-0.0010566413402557373,0.01,0.0,0.0,0.0,0.01,0.0,0.0,0.0,0.01,0.17039631307125092,-0.0834348276257515,9.636396408081055,0.01,0.0,0.0,0.0,0.01,0.0,0.0,0.0,0.01
1648214228.0137951,9937,1648214228,13242721,fufi_imu_link,-0.003718164012470498,-0.010098311809535446,0.007592069419600348,0.9999132761579385,0.0,0.0,0.0,0.0,0.0,0.0,0.0,0.0,0.0,-0.0015333490446209908,0.0008933208882808685,-5.6451186537742615e-05,0.01,0.0,0.0,0.0,0.01,0.0,0.0,0.0,0.01,0.22064143419265747,-0.06821992993354797,9.62004280090332,0.01,0.0,0.0,0.0,0.01,0.0,0.0,0.0,0.01
1648214228.043723,9938,1648214228,42241911,fufi_imu_link,-0.0037015722734735153,-0.010126418380793633,0.0075756168686038185,0.9999131782522629,0.0,0.0,0.0,0.0,0.0,0.0,0.0,0.0,0.0,0.001157025690190494,-0.0014355122111737728,-0.001150248572230339,0.01,0.0,0.0,0.0,0.01,0.0,0.0,0.0,0.01,0.22288459539413452,-0.07500255852937698,9.636685371398926,0.01,0.0,0.0,0.0,0.01,0.0,0.0,0.0,0.01
1648214228.0705438,9939,1648214228,69903779,fufi_imu_link,-0.00367761392509257,-0.01014410641008903,0.0075795616640806345,0.9999130574734683,0.0,0.0,0.0,0.0,0.0,0.0,0.0,0.0,0.0,0.0018830812769010663,-0.0011404957622289658,0.000260939821600914,0.01,0.0,0.0,0.0,0.01,0.0,0.0,0.0,0.01,0.2034708559513092,-0.080897755920887,9.654388427734375,0.01,0.0,0.0,0.0,0.01,0.0,0.0,0.0,0.01
1648214228.0879614,9940,1648214228,87561070,fufi_imu_link,-0.0036884923052759137,-0.010154941938440316,0.007582786904037913,0.9999128829660656,0.0,0.0,0.0,0.0,0.0,0.0,0.0,0.0,0.0,-0.000522357935551554,-0.0005950853228569031,0.0003636311739683151,0.01,0.0,0.0,0.0,0.01,0.0,0.0,0.0,0.01,0.2157212793827057,-0.09653469175100327,9.60818099975586,0.01,0.0,0.0,0.0,0.01,0.0,0.0,0.0,0.01
1648214228.1172302,9941,1648214228,116869001,fufi_imu_link,-0.0036746316517709135,-0.0101609501248223,0.007583557236453967,0.9999128671211438,0.0,0.0,0.0,0.0,0.0,0.0,0.0,0.0,0.0,0.00138416129630059,8.890591561794281e-05,3.6325305700302124e-05,0.01,0.0,0.0,0.0,0.01,0.0,0.0,0.0,0.01,0.22433899343013763,-0.09735123068094254,9.660058975219727,0.01,0.0,0.0,0.0,0.01,0.0,0.0,0.0,0.01
1648214228.1544976,9942,1648214228,154077964,fufi_imu_link,-0.003688683185428503,-0.010165285735985642,0.007593272664443117,0.9999126975853977,0.0,0.0,0.0,0.0,0.0,0.0,0.0,0.0,0.0,-0.0005445857532322407,-0.0001105298288166523,0.0005257446318864822,0.01,0.0,0.0,0.0,0.01,0.0,0.0,0.0,0.01,0.20354318618774414,-0.08723089098930359,9.620414733886719,0.01,0.0,0.0,0.0,0.01,0.0,0.0,0.0,0.01
1648214228.1625886,9943,1648214228,162271135,fufi_imu_link,-0.003690421571810593,-0.010165283608762512,0.007590468267883059,0.99991271248507,0.0,0.0,0.0,0.0,0.0,0.0,0.0,0.0,0.0,-0.0001579103118274361,0.0013980921357870102,-0.0006752777844667435,0.01,0.0,0.0,0.0,0.01,0.0,0.0,0.0,0.01,0.21682332456111908,-0.0767575055360794,9.616111755371094,0.01,0.0,0.0,0.0,0.01,0.0,0.0,0.0,0.01
1648214228.2016106,9944,1648214228,200831779,fufi_imu_link,-0.003661495146023965,-0.010158215871076142,0.007598450245715698,0.999912830029436,0.0,0.0,0.0,0.0,0.0,0.0,0.0,0.0,0.0,0.001566744060255587,0.0004478362388908863,0.0003995150327682495,0.01,0.0,0.0,0.0,0.01,0.0,0.0,0.0,0.01,0.2016967087984085,-0.07626809179782867,9.610777854919434,0.01,0.0,0.0,0.0,0.01,0.0,0.0,0.0,0.01
1648214228.2295094,9945,1648214228,228823298,fufi_imu_link,-0.00366113933827254,-0.010157987213667872,0.007603202207603578,0.9999127975332165,0.0,0.0,0.0,0.0,0.0,0.0,0.0,0.0,0.0,0.00026689801597967744,6.347103044390678e-05,0.00033486075699329376,0.01,0.0,0.0,0.0,0.01,0.0,0.0,0.0,0.01,0.19790177047252655,-0.0848480686545372,9.637728691101074,0.01,0.0,0.0,0.0,0.01,0.0,0.0,0.0,0.01
1648214228.238279,9946,1648214228,237464494,fufi_imu_link,-0.003669722147402532,-0.010158462465838366,0.007602760684566081,0.9999127645998246,0.0,0.0,0.0,0.0,0.0,0.0,0.0,0.0,0.0,-0.0009849835187196732,-0.00016224617138504982,-0.0001031830906867981,0.01,0.0,0.0,0.0,0.01,0.0,0.0,0.0,0.01,0.19349884986877441,-0.08855871856212616,9.604026794433594,0.01,0.0,0.0,0.0,0.01,0.0,0.0,0.0,0.01
1648214228.2848406,9947,1648214228,284105794,fufi_imu_link,-0.0036590479713905486,-0.010173311711556205,0.007605608520689476,0.9999126310912333,0.0,0.0,0.0,0.0,0.0,0.0,0.0,0.0,0.0,0.0005276894080452621,-0.00021759327501058578,0.00011683627963066101,0.01,0.0,0.0,0.0,0.01,0.0,0.0,0.0,0.01,0.23342734575271606,-0.07861366868019104,9.636604309082031,0.01,0.0,0.0,0.0,0.01,0.0,0.0,0.0,0.01
1648214228.2856874,9948,1648214228,285287895,fufi_imu_link,-0.003666420089575249,-0.010173590768313283,0.007605569671231503,0.9999126015430457,0.0,0.0,0.0,0.0,0.0,0.0,0.0,0.0,0.0,2.4886219762265682e-05,0.0005638217553496361,-0.00018683820962905884,0.01,0.0,0.0,0.0,0.01,0.0,0.0,0.0,0.01,0.1972440779209137,-0.10028481483459473,9.6141939163208,0.01,0.0,0.0,0.0,0.01,0.0,0.0,0.0,0.01
1648214228.304337,9949,1648214228,303704423,fufi_imu_link,-0.003682300790260095,-0.010172270672299042,0.007605478895157443,0.9999125573074052,0.0,0.0,0.0,0.0,0.0,0.0,0.0,0.0,0.0,-0.0011611735681071877,-0.00020074518397450447,-5.841255187988281e-06,0.01,0.0,0.0,0.0,0.01,0.0,0.0,0.0,0.01,0.1826879233121872,-0.09222283959388733,9.62436580657959,0.01,0.0,0.0,0.0,0.01,0.0,0.0,0.0,0.01
1648214228.31292,9950,1648214228,312183178,fufi_imu_link,-0.003686376774814022,-0.010170820954190831,0.0076024496693591756,0.9999125800720866,0.0,0.0,0.0,0.0,0.0,0.0,0.0,0.0,0.0,-3.995111910626292e-06,0.00032483087852597237,-0.0007232073694467545,0.01,0.0,0.0,0.0,0.01,0.0,0.0,0.0,0.01,0.19478461146354675,-0.08806907385587692,9.622406959533691,0.01,0.0,0.0,0.0,0.01,0.0,0.0,0.0,0.01
1648214228.359391,9951,1648214228,358789490,fufi_imu_link,-0.003677789648998889,-0.010149385776363895,0.007593525409816076,0.999912897308316,0.0,0.0,0.0,0.0,0.0,0.0,0.0,0.0,0.0,0.0003847531334031373,0.0012175478041172028,-0.0003814082592725754,0.01,0.0,0.0,0.0,0.01,0.0,0.0,0.0,0.01,0.22116708755493164,-0.07332980632781982,9.60726547241211,0.01,0.0,0.0,0.0,0.01,0.0,0.0,0.0,0.01
1648214228.3602407,9952,1648214228,359739894,fufi_imu_link,-0.0036789835638746976,-0.01014553245731684,0.007593367124633489,0.9999129332230905,0.0,0.0,0.0,0.0,0.0,0.0,0.0,0.0,0.0,0.0005406267009675503,-0.00016098935157060623,-0.00040120072662830353,0.01,0.0,0.0,0.0,0.01,0.0,0.0,0.0,0.01,0.1796889305114746,-0.07776510715484619,9.624715805053711,0.01,0.0,0.0,0.0,0.01,0.0,0.0,0.0,0.01
1648214228.4264195,9953,1648214228,425100267,fufi_imu_link,-0.0036989482156249277,-0.0101337646552963,0.007623372738819552,0.9999127505858171,0.0,0.0,0.0,0.0,0.0,0.0,0.0,0.0,0.0,-0.00040250239544548094,0.00017613545060157776,0.0009202789515256882,0.01,0.0,0.0,0.0,0.01,0.0,0.0,0.0,0.01,0.17163297533988953,-0.09743797779083252,9.639575958251953,0.01,0.0,0.0,0.0,0.01,0.0,0.0,0.0,0.01
1648214228.4350648,9954,1648214228,434503772,fufi_imu_link,-0.0037047663364810613,-0.010134279743372773,0.007619049121871781,0.9999127567797872,0.0,0.0,0.0,0.0,0.0,0.0,0.0,0.0,0.0,-0.00023435612092725933,-0.0006466745398938656,-0.0009320080280303955,0.01,0.0,0.0,0.0,0.01,0.0,0.0,0.0,0.01,0.18547320365905762,-0.09147118031978607,9.667412757873535,0.01,0.0,0.0,0.0,0.01,0.0,0.0,0.0,0.01
1648214228.4709103,9955,1648214228,470311296,fufi_imu_link,-0.0036922018769585826,-0.01016153374342929,0.007626162910366261,0.9999124724277348,0.0,0.0,0.0,0.0,0.0,0.0,0.0,0.0,0.0,0.0008330757264047861,-0.0015494285617023706,0.00038170255720615387,0.01,0.0,0.0,0.0,0.01,0.0,0.0,0.0,0.01,0.1935923993587494,-0.08206848800182343,9.619612693786621,0.01,0.0,0.0,0.0,0.01,0.0,0.0,0.0,0.01
1648214228.505981,9956,1648214228,502748965,fufi_imu_link,-0.003709744371719725,-0.010168507112803959,0.007623955574448235,0.9999123534396365,0.0,0.0,0.0,0.0,0.0,0.0,0.0,0.0,0.0,-0.001327994978055358,-0.0001529483124613762,-0.00011969543993473053,0.01,0.0,0.0,0.0,0.01,0.0,0.0,0.0,0.01,0.2113504409790039,-0.057734377682209015,9.599802017211914,0.01,0.0,0.0,0.0,0.01,0.0,0.0,0.0,0.01
1648214228.5184107,9957,1648214228,517429304,fufi_imu_link,-0.003701158326264629,-0.010167376912938519,0.007627612871300438,0.9999123688582114,0.0,0.0,0.0,0.0,0.0,0.0,0.0,0.0,0.0,0.0002500393311493099,-0.0005323290824890137,0.0005005411803722382,0.01,0.0,0.0,0.0,0.01,0.0,0.0,0.0,0.01,0.1764068603515625,-0.04676080495119095,9.636072158813477,0.01,0.0,0.0,0.0,0.01,0.0,0.0,0.0,0.01
1648214228.5557392,9958,1648214228,555145586,fufi_imu_link,-0.003715971144232938,-0.010138773490408115,0.007634832644214138,0.999912549256714,0.0,0.0,0.0,0.0,0.0,0.0,0.0,0.0,0.0,-0.0005624022451229393,0.0013832957483828068,0.0003910921514034271,0.01,0.0,0.0,0.0,0.01,0.0,0.0,0.0,0.01,0.18449896574020386,-0.08794566988945007,9.615623474121094,0.01,0.0,0.0,0.0,0.01,0.0,0.0,0.0,0.01
1648214228.5646656,9959,1648214228,563813331,fufi_imu_link,-0.003710977892008714,-0.010136308441043018,0.0076378792322347785,0.9999125695255094,0.0,0.0,0.0,0.0,0.0,0.0,0.0,0.0,0.0,0.0020950990729033947,-0.0003889976069331169,0.0006672926247119904,0.01,0.0,0.0,0.0,0.01,0.0,0.0,0.0,0.01,0.17886394262313843,-0.08839832246303558,9.623713493347168,0.01,0.0,0.0,0.0,0.01,0.0,0.0,0.0,0.01
1648214228.575397,9960,1648214228,574804385,fufi_imu_link,-0.003717785923556448,-0.010134448815301508,0.007635987690051967,0.9999125775321731,0.0,0.0,0.0,0.0,0.0,0.0,0.0,0.0,0.0,-0.0015368949389085174,0.0005091517232358456,-0.0003231409937143326,0.01,0.0,0.0,0.0,0.01,0.0,0.0,0.0,0.01,0.1977306604385376,-0.06673584878444672,9.614789962768555,0.01,0.0,0.0,0.0,0.01,0.0,0.0,0.0,0.01
1648214228.5939486,9961,1648214228,592679109,fufi_imu_link,-0.0037087583042271517,-0.01013457751019613,0.00763394131225615,0.9999126253781238,0.0,0.0,0.0,0.0,0.0,0.0,0.0,0.0,0.0,0.0009538950398564339,-0.00040745828300714493,-0.00024112313985824585,0.01,0.0,0.0,0.0,0.01,0.0,0.0,0.0,0.01,0.1815154254436493,-0.07112133502960205,9.634096145629883,0.01,0.0,0.0,0.0,0.01,0.0,0.0,0.0,0.01
1648214228.6311576,9962,1648214228,630007040,fufi_imu_link,-0.0037020331818723527,-0.010151846298463734,0.007644660209529984,0.9999123932311939,0.0,0.0,0.0,0.0,0.0,0.0,0.0,0.0,0.0,0.0004936904879286885,-0.0010676365345716476,0.0005635060369968414,0.01,0.0,0.0,0.0,0.01,0.0,0.0,0.0,0.01,0.1852710247039795,-0.08249041438102722,9.635252952575684,0.01,0.0,0.0,0.0,0.01,0.0,0.0,0.0,0.01
1648214228.6417317,9963,1648214228,638312862,fufi_imu_link,-0.0037019682649898984,-0.010154362812350576,0.007641086599503759,0.9999123952339121,0.0,0.0,0.0,0.0,0.0,0.0,0.0,0.0,0.0,0.00047669647028669715,-0.0006284895353019238,-0.0008726399391889572,0.01,0.0,0.0,0.0,0.01,0.0,0.0,0.0,0.01,0.19455905258655548,-0.08032337576150894,9.625588417053223,0.01,0.0,0.0,0.0,0.01,0.0,0.0,0.0,0.01
1648214228.6672404,9964,1648214228,666917316,fufi_imu_link,-0.003710468594114762,-0.010148998916592445,0.007640217802861175,0.9999124248231582,0.0,0.0,0.0,0.0,0.0,0.0,0.0,0.0,0.0,-0.00031253378256224096,0.0003788582980632782,-5.8999285101890564e-05,0.01,0.0,0.0,0.0,0.01,0.0,0.0,0.0,0.01,0.19427081942558289,-0.08801069855690002,9.598870277404785,0.01,0.0,0.0,0.0,0.01,0.0,0.0,0.0,0.01
1648214228.704415,9965,1648214228,704079486,fufi_imu_link,-0.0036953809894079157,-0.010129233720433452,0.007653269225901168,0.9999125813058539,0.0,0.0,0.0,0.0,0.0,0.0,0.0,0.0,0.0,0.0009880102006718516,0.0010651983320713043,0.0006948094815015793,0.01,0.0,0.0,0.0,0.01,0.0,0.0,0.0,0.01,0.19526897370815277,-0.08411862701177597,9.628199577331543,0.01,0.0,0.0,0.0,0.01,0.0,0.0,0.0,0.01
1648214228.7124321,9966,1648214228,712246609,fufi_imu_link,-0.0037034792232373795,-0.010119184422325239,0.007653473257706021,0.9999126515328045,0.0,0.0,0.0,0.0,0.0,0.0,0.0,0.0,0.0,-0.0012206505052745342,-0.0004495452158153057,4.190579056739807e-05,0.01,0.0,0.0,0.0,0.01,0.0,0.0,0.0,0.01,0.1486303210258484,-0.08449534326791763,9.633670806884766,0.01,0.0,0.0,0.0,0.01,0.0,0.0,0.0,0.01
1648214228.7507079,9967,1648214228,750348084,fufi_imu_link,-0.003693516659014398,-0.010135328962486846,0.007652256334577357,0.9999125341821161,0.0,0.0,0.0,0.0,0.0,0.0,0.0,0.0,0.0,0.00046098101302050054,-0.0007550339214503765,-7.042288780212402e-05,0.01,0.0,0.0,0.0,0.01,0.0,0.0,0.0,0.01,0.20160232484340668,-0.06860219687223434,9.624589920043945,0.01,0.0,0.0,0.0,0.01,0.0,0.0,0.0,0.01
1648214228.7790966,9968,1648214228,778744580,fufi_imu_link,-0.003710556090960733,-0.010122685701283392,0.007646817623490654,0.9999126407781441,0.0,0.0,0.0,0.0,0.0,0.0,0.0,0.0,0.0,-0.0007318457355722785,0.0006386963650584221,-0.0003790091723203659,0.01,0.0,0.0,0.0,0.01,0.0,0.0,0.0,0.01,0.18054088950157166,-0.09850163757801056,9.650362968444824,0.01,0.0,0.0,0.0,0.01,0.0,0.0,0.0,0.01
1648214228.7874272,9969,1648214228,787100655,fufi_imu_link,-0.0037061448051251304,-0.01013867481351443,0.007644170398873553,0.9999125153845322,0.0,0.0,0.0,0.0,0.0,0.0,0.0,0.0,0.0,0.0009139645844697952,-0.001245087943971157,-0.0006364714354276657,0.01,0.0,0.0,0.0,0.01,0.0,0.0,0.0,0.01,0.23664705455303192,-0.07131672650575638,9.647738456726074,0.01,0.0,0.0,0.0,0.01,0.0,0.0,0.0,0.01
1648214228.8353446,9970,1648214228,834196721,fufi_imu_link,-0.003719349427683599,-0.01016330558517638,0.0076456739069280175,0.9999122048109655,0.0,0.0,0.0,0.0,0.0,0.0,0.0,0.0,0.0,-0.0006326147704385221,-0.001073155552148819,6.682239472866058e-05,0.01,0.0,0.0,0.0,0.01,0.0,0.0,0.0,0.01,0.19293610751628876,-0.06750074774026871,9.656309127807617,0.01,0.0,0.0,0.0,0.01,0.0,0.0,0.0,0.01
1648214228.8445086,9971,1648214228,843806012,fufi_imu_link,-0.0037190862020731346,-0.010164037674738391,0.007644743827962762,0.9999122054599457,0.0,0.0,0.0,0.0,0.0,0.0,0.0,0.0,0.0,0.0005076947854831815,-0.0004901750944554806,-0.00020650029182434082,0.01,0.0,0.0,0.0,0.01,0.0,0.0,0.0,0.01,0.18924590945243835,-0.08164027333259583,9.641968727111816,0.01,0.0,0.0,0.0,0.01,0.0,0.0,0.0,0.01
1648214228.8629963,9972,1648214228,862289176,fufi_imu_link,-0.003722103040326964,-0.010170093699476884,0.0076476909359454405,0.9999121101209093,0.0,0.0,0.0,0.0,0.0,0.0,0.0,0.0,0.0,0.0004924644017592072,6.67273998260498e-05,0.0003086607903242111,0.01,0.0,0.0,0.0,0.01,0.0,0.0,0.0,0.01,0.22066189348697662,-0.102171391248703,9.619604110717773,0.01,0.0,0.0,0.0,0.01,0.0,0.0,0.0,0.01
1648214228.9095318,9973,1648214228,908841252,fufi_imu_link,-0.003709853613608819,-0.010198353925630078,0.007654912468792691,0.999911812550721,0.0,0.0,0.0,0.0,0.0,0.0,0.0,0.0,0.0,0.0006755365757271647,-0.0013236133381724358,0.0002965051680803299,0.01,0.0,0.0,0.0,0.01,0.0,0.0,0.0,0.01,0.18600288033485413,-0.08656862378120422,9.599434852600098,0.01,0.0,0.0,0.0,0.01,0.0,0.0,0.0,0.01
1648214228.9108293,9974,1648214228,910282761,fufi_imu_link,-0.003717592948935687,-0.010202989194338591,0.0076550636369035,0.9999117353621174,0.0,0.0,0.0,0.0,0.0,0.0,0.0,0.0,0.0,-0.0020841138903051615,0.000877410639077425,0.0001739785075187683,0.01,0.0,0.0,0.0,0.01,0.0,0.0,0.0,0.01,0.21571578085422516,-0.09704999625682831,9.618789672851562,0.01,0.0,0.0,0.0,0.01,0.0,0.0,0.0,0.01
1648214228.9763463,9975,1648214228,975521846,fufi_imu_link,-0.003659666867044978,-0.01025348151383246,0.007670209057462676,0.999911316491759,0.0,0.0,0.0,0.0,0.0,0.0,0.0,0.0,0.0,0.001914558350108564,-0.0015377579256892204,0.00043770112097263336,0.01,0.0,0.0,0.0,0.01,0.0,0.0,0.0,0.01,0.20010444521903992,-0.09025779366493225,9.627492904663086,0.01,0.0,0.0,0.0,0.01,0.0,0.0,0.0,0.01
1648214228.9858353,9976,1648214228,985233685,fufi_imu_link,-0.0036692558556076405,-0.010257559918118333,0.007669450224391758,0.9999112453409292,0.0,0.0,0.0,0.0,0.0,0.0,0.0,0.0,0.0,-0.0004204577417112887,-0.0008196732960641384,-0.00017089396715164185,0.01,0.0,0.0,0.0,0.01,0.0,0.0,0.0,0.01,0.19757255911827087,-0.10151058435440063,9.651476860046387,0.01,0.0,0.0,0.0,0.01,0.0,0.0,0.0,0.01
1648214229.0505273,9977,1648214229,49905249,fufi_imu_link,-0.003697562008111398,-0.010266768480422371,0.007702122136895356,0.9999107954286492,0.0,0.0,0.0,0.0,0.0,0.0,0.0,0.0,0.0,-0.0009645752143114805,-0.00026654452085494995,0.0010204557329416275,0.01,0.0,0.0,0.0,0.01,0.0,0.0,0.0,0.01,0.19852082431316376,-0.06048896163702011,9.600927352905273,0.01,0.0,0.0,0.0,0.01,0.0,0.0,0.0,0.01
1648214229.068373,9978,1648214229,67453476,fufi_imu_link,-0.0036847342742098656,-0.010283979162667928,0.007707186751709739,0.9999106268953665,0.0,0.0,0.0,0.0,0.0,0.0,0.0,0.0,0.0,0.0019030908588320017,-0.0016699982807040215,0.000548122450709343,0.01,0.0,0.0,0.0,0.01,0.0,0.0,0.0,0.01,0.20829910039901733,-0.08786773681640625,9.65256404876709,0.01,0.0,0.0,0.0,0.01,0.0,0.0,0.0,0.01
1648214229.1061118,9979,1648214229,105243729,fufi_imu_link,-0.0036902579979403043,-0.010267104291592949,0.007711318618444032,0.9999107480823172,0.0,0.0,0.0,0.0,0.0,0.0,0.0,0.0,0.0,-0.00038708990905433893,0.0011723805218935013,0.00022912584245204926,0.01,0.0,0.0,0.0,0.01,0.0,0.0,0.0,0.01,0.21712413430213928,-0.0650089755654335,9.619586944580078,0.01,0.0,0.0,0.0,0.01,0.0,0.0,0.0,0.01
1648214229.114688,9980,1648214229,113968321,fufi_imu_link,-0.0036867570876850087,-0.010266604979015643,0.007715524272182884,0.9999107336805554,0.0,0.0,0.0,0.0,0.0,0.0,0.0,0.0,0.0,0.000865213805809617,-0.00011452473700046539,0.0009534973651170731,0.01,0.0,0.0,0.0,0.01,0.0,0.0,0.0,0.01,0.1930040717124939,-0.07320599257946014,9.602853775024414,0.01,0.0,0.0,0.0,0.01,0.0,0.0,0.0,0.01
1648214229.1255674,9981,1648214229,124717142,fufi_imu_link,-0.0036948237503629374,-0.01026342005281491,0.007716193155763927,0.9999107314402903,0.0,0.0,0.0,0.0,0.0,0.0,0.0,0.0,0.0,-0.0018208833644166589,-0.0006612003780901432,0.00013917870819568634,0.01,0.0,0.0,0.0,0.01,0.0,0.0,0.0,0.01,0.17135830223560333,-0.0660862997174263,9.645216941833496,0.01,0.0,0.0,0.0,0.01,0.0,0.0,0.0,0.01
1648214229.146197,9982,1648214229,142276931,fufi_imu_link,-0.003693532162335684,-0.010264873286183364,0.007722544336703116,0.9999106722630539,0.0,0.0,0.0,0.0,0.0,0.0,0.0,0.0,0.0,0.0003109934041276574,-2.6883091777563095e-05,0.0007190890610218048,0.01,0.0,0.0,0.0,0.01,0.0,0.0,0.0,0.01,0.2015756368637085,-0.07783142477273941,9.610774040222168,0.01,0.0,0.0,0.0,0.01,0.0,0.0,0.0,0.01
1648214229.1805224,9983,1648214229,179926522,fufi_imu_link,-0.0037058088323478735,-0.010282853090282016,0.0077331582337826325,0.9999103600708181,0.0,0.0,0.0,0.0,0.0,0.0,0.0,0.0,0.0,-0.00038513608160428703,-0.0004722028970718384,0.0005651935935020447,0.01,0.0,0.0,0.0,0.01,0.0,0.0,0.0,0.01,0.23159298300743103,-0.09207480400800705,9.605647087097168,0.01,0.0,0.0,0.0,0.01,0.0,0.0,0.0,0.01
1648214229.1888573,9984,1648214229,188069308,fufi_imu_link,-0.003703210108030822,-0.01028917608646914,0.00773464803075692,0.9999102931314379,0.0,0.0,0.0,0.0,0.0,0.0,0.0,0.0,0.0,0.0008112575160339475,-0.00031480519101023674,0.0003593936562538147,0.01,0.0,0.0,0.0,0.01,0.0,0.0,0.0,0.01,0.21661990880966187,-0.07553897798061371,9.609670639038086,0.01,0.0,0.0,0.0,0.01,0.0,0.0,0.0,0.01
1648214229.217765,9985,1648214229,217113477,fufi_imu_link,-0.0036910355818026235,-0.01028562275422461,0.00773198253398543,0.9999103953189935,0.0,0.0,0.0,0.0,0.0,0.0,0.0,0.0,0.0,0.0006965651409700513,0.0004790527746081352,-0.0001865830272436142,0.01,0.0,0.0,0.0,0.01,0.0,0.0,0.0,0.01,0.21021655201911926,-0.06451325863599777,9.596399307250977,0.01,0.0,0.0,0.0,0.01,0.0,0.0,0.0,0.01
1648214229.2548819,9986,1648214229,254161219,fufi_imu_link,-0.0036832287716542485,-0.010281026357384671,0.007719767408160485,0.9999105657577674,0.0,0.0,0.0,0.0,0.0,0.0,0.0,0.0,0.0,0.0007360574090853333,0.00020166626200079918,-0.0006697550415992737,0.01,0.0,0.0,0.0,0.01,0.0,0.0,0.0,0.01,0.1937231719493866,-0.0949150025844574,9.604012489318848,0.01,0.0,0.0,0.0,0.01,0.0,0.0,0.0,0.01
1648214229.2633839,9987,1648214229,262671875,fufi_imu_link,-0.003685070873842739,-0.010276466009296681,0.007720012921401138,0.9999106039539274,0.0,0.0,0.0,0.0,0.0,0.0,0.0,0.0,0.0,8.305447408929467e-05,-1.894403249025345e-05,4.738941788673401e-05,0.01,0.0,0.0,0.0,0.01,0.0,0.0,0.0,0.01,0.17935135960578918,-0.08069248497486115,9.618830680847168,0.01,0.0,0.0,0.0,0.01,0.0,0.0,0.0,0.01
1648214229.3015754,9988,1648214229,300845050,fufi_imu_link,-0.0036954058670866734,-0.010301023341880025,0.007742777074012287,0.9999101371107155,0.0,0.0,0.0,0.0,0.0,0.0,0.0,0.0,0.0,-0.0003612848522607237,-0.0014279899187386036,0.0011888686567544937,0.01,0.0,0.0,0.0,0.01,0.0,0.0,0.0,0.01,0.1873975396156311,-0.08566930145025253,9.621886253356934,0.01,0.0,0.0,0.0,0.01,0.0,0.0,0.0,0.01
1648214229.329076,9989,1648214229,328780416,fufi_imu_link,-0.0036865676100159817,-0.0103133009905959,0.007743512192321973,0.9999100374838037,0.0,0.0,0.0,0.0,0.0,0.0,0.0,0.0,0.0,0.0009983271593227983,-0.0008707791566848755,3.536790609359741e-05,0.01,0.0,0.0,0.0,0.01,0.0,0.0,0.0,0.01,0.19869288802146912,-0.09240993857383728,9.62350082397461,0.01,0.0,0.0,0.0,0.01,0.0,0.0,0.0,0.01
1648214229.337528,9990,1648214229,337199200,fufi_imu_link,-0.0036892466209219226,-0.010308606930220423,0.0077446474709227464,0.9999100672150868,0.0,0.0,0.0,0.0,0.0,0.0,0.0,0.0,0.0,0.0004294005047995597,0.0011390401050448418,0.000258762389421463,0.01,0.0,0.0,0.0,0.01,0.0,0.0,0.0,0.01,0.19852903485298157,-0.08970492333173752,9.638895988464355,0.01,0.0,0.0,0.0,0.01,0.0,0.0,0.0,0.01
1648214229.3845093,9991,1648214229,384151841,fufi_imu_link,-0.003691414323886866,-0.010315462677539654,0.007765467981686583,0.9999098270329496,0.0,0.0,0.0,0.0,0.0,0.0,0.0,0.0,0.0,-0.0001577308285050094,-0.00023252563551068306,0.0008887015283107758,0.01,0.0,0.0,0.0,0.01,0.0,0.0,0.0,0.01,0.2030002623796463,-0.06590424478054047,9.594688415527344,0.01,0.0,0.0,0.0,0.01,0.0,0.0,0.0,0.01
1648214229.4041066,9992,1648214229,403786151,fufi_imu_link,-0.003691965947580152,-0.010313704795091116,0.007763253352086246,0.9999098603265361,0.0,0.0,0.0,0.0,0.0,0.0,0.0,0.0,0.0,-0.0001955138286575675,0.0002306690439581871,-0.0002211257815361023,0.01,0.0,0.0,0.0,0.01,0.0,0.0,0.0,0.01,0.2002364993095398,-0.06752528250217438,9.640722274780273,0.01,0.0,0.0,0.0,0.01,0.0,0.0,0.0,0.01
1648214229.4126747,9993,1648214229,412145062,fufi_imu_link,-0.003691292707168751,-0.010312338590288544,0.007763830170363937,0.9999098724245277,0.0,0.0,0.0,0.0,0.0,0.0,0.0,0.0,0.0,0.0007856923039071262,6.748456507921219e-05,0.00012281164526939392,0.01,0.0,0.0,0.0,0.01,0.0,0.0,0.0,0.01,0.1931406557559967,-0.08224348723888397,9.589111328125,0.01,0.0,0.0,0.0,0.01,0.0,0.0,0.0,0.01
1648214229.4596453,9994,1648214229,458916315,fufi_imu_link,-0.0037129623700464663,-0.010310315343290749,0.007756143754077474,0.9999098727095492,0.0,0.0,0.0,0.0,0.0,0.0,0.0,0.0,0.0,-0.0008695549331605434,0.000209941528737545,-0.0003191344439983368,0.01,0.0,0.0,0.0,0.01,0.0,0.0,0.0,0.01,0.20818991959095,-0.07835021615028381,9.621826171875,0.01,0.0,0.0,0.0,0.01,0.0,0.0,0.0,0.01
1648214229.460702,9995,1648214229,459960357,fufi_imu_link,-0.003717383947835605,-0.010302470728473727,0.0077562651211118125,0.9999099361966779,0.0,0.0,0.0,0.0,0.0,0.0,0.0,0.0,0.0,0.0005673394771292806,0.0003853519447147846,7.96876847743988e-05,0.01,0.0,0.0,0.0,0.01,0.0,0.0,0.0,0.01,0.16818660497665405,-0.09084734320640564,9.614248275756836,0.01,0.0,0.0,0.0,0.01,0.0,0.0,0.0,0.01
1648214229.4879944,9996,1648214229,487270855,fufi_imu_link,-0.0037459007278371837,-0.010287547634329132,0.007746025645407001,0.9999100627947043,0.0,0.0,0.0,0.0,0.0,0.0,0.0,0.0,0.0,-0.002117274794727564,0.0010472876019775867,-0.0007241610437631607,0.01,0.0,0.0,0.0,0.01,0.0,0.0,0.0,0.01,0.19375118613243103,-0.0719483345746994,9.606291770935059,0.01,0.0,0.0,0.0,0.01,0.0,0.0,0.0,0.01
1648214229.5268993,9997,1648214229,525433337,fufi_imu_link,-0.003762714969923778,-0.010263775220346959,0.007743641593605504,0.9999102624281597,0.0,0.0,0.0,0.0,0.0,0.0,0.0,0.0,0.0,-0.0009016793919727206,0.0009935302659869194,-0.00011267699301242828,0.01,0.0,0.0,0.0,0.01,0.0,0.0,0.0,0.01,0.17800208926200867,-0.07183097302913666,9.621793746948242,0.01,0.0,0.0,0.0,0.01,0.0,0.0,0.0,0.01
1648214229.5352523,9998,1648214229,534611886,fufi_imu_link,-0.003762382474812967,-0.01025904709287006,0.007743799431945888,0.9999103109785483,0.0,0.0,0.0,0.0,0.0,0.0,0.0,0.0,0.0,0.0001870982232503593,-0.00021934043616056442,2.5667250156402588e-05,0.01,0.0,0.0,0.0,0.01,0.0,0.0,0.0,0.01,0.17470557987689972,-0.07571277767419815,9.609406471252441,0.01,0.0,0.0,0.0,0.01,0.0,0.0,0.0,0.01
1648214229.6005824,9999,1648214229,599880049,fufi_imu_link,-0.0037293348253104436,-0.010263946158471317,0.007780432633922803,0.9999101001285295,0.0,0.0,0.0,0.0,0.0,0.0,0.0,0.0,0.0,0.0010395917342975736,-0.00029930099844932556,0.001110149547457695,0.01,0.0,0.0,0.0,0.01,0.0,0.0,0.0,0.01,0.1794365495443344,-0.07522528618574142,9.599699020385742,0.01,0.0,0.0,0.0,0.01,0.0,0.0,0.0,0.01
1648214229.618698,10000,1648214229,617652155,fufi_imu_link,-0.00372904804354129,-0.010257072387085342,0.0077890217072017565,0.9999101048632221,0.0,0.0,0.0,0.0,0.0,0.0,0.0,0.0,0.0,0.0004701058496721089,0.0003450722433626652,0.0009571723639965057,0.01,0.0,0.0,0.0,0.01,0.0,0.0,0.0,0.01,0.18256324529647827,-0.08775059878826141,9.630446434020996,0.01,0.0,0.0,0.0,0.01,0.0,0.0,0.0,0.01
1648214229.656213,10001,1648214229,655320100,fufi_imu_link,-0.0037196841146025484,-0.01024808084477921,0.0078056217382634924,0.9999101024884015,0.0,0.0,0.0,0.0,0.0,0.0,0.0,0.0,0.0,7.061872747726738e-05,0.000542124267667532,0.0008875206112861633,0.01,0.0,0.0,0.0,0.01,0.0,0.0,0.0,0.01,0.2006555199623108,-0.04118382930755615,9.563905715942383,0.01,0.0,0.0,0.0,0.01,0.0,0.0,0.0,0.01
1648214229.664894,10002,1648214229,663962254,fufi_imu_link,-0.0037305977653910778,-0.01024603536317435,0.007813704985538164,0.9999100196587933,0.0,0.0,0.0,0.0,0.0,0.0,0.0,0.0,0.0,-0.0014502881094813347,0.00019534258171916008,0.0018745604902505875,0.01,0.0,0.0,0.0,0.01,0.0,0.0,0.0,0.01,0.19190636277198792,-0.09080100059509277,9.625710487365723,0.01,0.0,0.0,0.0,0.01,0.0,0.0,0.0,0.01
1648214229.675595,10003,1648214229,674921135,fufi_imu_link,-0.0037449190855286174,-0.01025219873442784,0.007814843192176879,0.9999098940544765,0.0,0.0,0.0,0.0,0.0,0.0,0.0,0.0,0.0,-0.0013247453607618809,-0.00013617705553770065,0.00021138601005077362,0.01,0.0,0.0,0.0,0.01,0.0,0.0,0.0,0.01,0.21677201986312866,-0.10066243261098862,9.607185363769531,0.01,0.0,0.0,0.0,0.01,0.0,0.0,0.0,0.01
1648214229.6934254,10004,1648214229,692610489,fufi_imu_link,-0.0037339095672211473,-0.010268629797749586,0.00781339104131069,0.9999097779709208,0.0,0.0,0.0,0.0,0.0,0.0,0.0,0.0,0.0,0.0009253142634406686,-0.0018049762584269047,-0.00017710961401462555,0.01,0.0,0.0,0.0,0.01,0.0,0.0,0.0,0.01,0.19897955656051636,-0.06307840347290039,9.612663269042969,0.01,0.0,0.0,0.0,0.01,0.0,0.0,0.0,0.01
1648214229.7025983,10005,1648214229,701831060,fufi_imu_link,-0.0037349725885048026,-0.010272478854518452,0.007812980820690164,0.999909737670677,0.0,0.0,0.0,0.0,0.0,0.0,0.0,0.0,0.0,-0.0001612094638403505,0.0003242441453039646,-8.239783346652985e-05,0.01,0.0,0.0,0.0,0.01,0.0,0.0,0.0,0.01,0.21698500216007233,-0.07458053529262543,9.5952730178833,0.01,0.0,0.0,0.0,0.01,0.0,0.0,0.0,0.01
1648214229.7310963,10006,1648214229,730130721,fufi_imu_link,-0.0037681154615542022,-0.010263170105235711,0.007821932956322672,0.999909638922481,0.0,0.0,0.0,0.0,0.0,0.0,0.0,0.0,0.0,-0.002390175359323621,0.000616628210991621,0.0006599687039852142,0.01,0.0,0.0,0.0,0.01,0.0,0.0,0.0,0.01,0.19407780468463898,-0.07090659439563751,9.632125854492188,0.01,0.0,0.0,0.0,0.01,0.0,0.0,0.0,0.01
1648214229.7387943,10007,1648214229,738039041,fufi_imu_link,-0.0037607618767826053,-0.010261105456209908,0.007818512155415878,0.9999097145505679,0.0,0.0,0.0,0.0,0.0,0.0,0.0,0.0,0.0,0.002243294846266508,-0.0012711547315120697,-0.000903962180018425,0.01,0.0,0.0,0.0,0.01,0.0,0.0,0.0,0.01,0.16994056105613708,-0.07981734722852707,9.622608184814453,0.01,0.0,0.0,0.0,0.01,0.0,0.0,0.0,0.01
1648214229.767881,10008,1648214229,767058613,fufi_imu_link,-0.003767698661081795,-0.010256021358870644,0.007812095620164089,0.9999097907484991,0.0,0.0,0.0,0.0,0.0,0.0,0.0,0.0,0.0,-0.0003453626704867929,0.0005859513767063618,-0.000436980277299881,0.01,0.0,0.0,0.0,0.01,0.0,0.0,0.0,0.01,0.2094307839870453,-0.0814579427242279,9.613128662109375,0.01,0.0,0.0,0.0,0.01,0.0,0.0,0.0,0.01
1648214229.795552,10009,1648214229,794889004,fufi_imu_link,-0.0037572653286433787,-0.010239925421996742,0.007817304726186632,0.9999099542615926,0.0,0.0,0.0,0.0,0.0,0.0,0.0,0.0,0.0,0.0007052875589579344,0.0009405664168298244,0.00037045590579509735,0.01,0.0,0.0,0.0,0.01,0.0,0.0,0.0,0.01,0.18594209849834442,-0.0710122361779213,9.650971412658691,0.01,0.0,0.0,0.0,0.01,0.0,0.0,0.0,0.01
1648214229.8141077,10010,1648214229,813156914,fufi_imu_link,-0.0037530462212019104,-0.01023347377533018,0.00781782704857928,0.9999100320722808,0.0,0.0,0.0,0.0,0.0,0.0,0.0,0.0,0.0,0.0009867182234302163,0.000761580653488636,4.489906132221222e-05,0.01,0.0,0.0,0.0,0.01,0.0,0.0,0.0,0.01,0.19866767525672913,-0.09202153980731964,9.631890296936035,0.01,0.0,0.0,0.0,0.01,0.0,0.0,0.0,0.01
1648214229.8795493,10011,1648214229,878936257,fufi_imu_link,-0.0037426110470612124,-0.010230383462235385,0.007838280180517151,0.9999099426851289,0.0,0.0,0.0,0.0,0.0,0.0,0.0,0.0,0.0,0.0005728165851905942,0.00013617798686027527,0.0006142314523458481,0.01,0.0,0.0,0.0,0.01,0.0,0.0,0.0,0.01,0.20186254382133484,-0.10467921197414398,9.602680206298828,0.01,0.0,0.0,0.0,0.01,0.0,0.0,0.0,0.01
1648214229.8875933,10012,1648214229,887244438,fufi_imu_link,-0.0037470313130188826,-0.01022388105286551,0.007836966252054127,0.9999100029365245,0.0,0.0,0.0,0.0,0.0,0.0,0.0,0.0,0.0,-0.0010989666916429996,0.0012034564279019833,-0.00030158087611198425,0.01,0.0,0.0,0.0,0.01,0.0,0.0,0.0,0.01,0.19043822586536407,-0.07301176339387894,9.628920555114746,0.01,0.0,0.0,0.0,0.01,0.0,0.0,0.0,0.01
1648214229.9345133,10013,1648214229,934188842,fufi_imu_link,-0.0037215170458015875,-0.010159195018348976,0.00784481168815363,0.9999106960109159,0.0,0.0,0.0,0.0,0.0,0.0,0.0,0.0,0.0,0.0013514540623873472,0.0016551222652196884,0.00032000429928302765,0.01,0.0,0.0,0.0,0.01,0.0,0.0,0.0,0.01,0.09719880670309067,-0.09501165896654129,9.654773712158203,0.01,0.0,0.0,0.0,0.01,0.0,0.0,0.0,0.01
1648214229.9540272,10014,1648214229,953733559,fufi_imu_link,-0.003737441578360088,-0.01007429907003379,0.007883079240600369,0.9999111946019917,0.0,0.0,0.0,0.0,0.0,0.0,0.0,0.0,0.0,-0.0012300724629312754,0.003928428515791893,0.003921912983059883,0.01,0.0,0.0,0.0,0.01,0.0,0.0,0.0,0.01,0.015229213051497936,-0.08413706719875336,9.597026824951172,0.01,0.0,0.0,0.0,0.01,0.0,0.0,0.0,0.01
1648214229.9622064,10015,1648214229,961953808,fufi_imu_link,-0.0037555273080852364,-0.00997062009151638,0.007905729526319481,0.9999119872220182,0.0,0.0,0.0,0.0,0.0,0.0,0.0,0.0,0.0,-0.0025210336316376925,0.0066763125360012054,0.005472945049405098,0.01,0.0,0.0,0.0,0.01,0.0,0.0,0.0,0.01,-0.10049593448638916,-0.09894667565822601,9.582372665405273,0.01,0.0,0.0,0.0,0.01,0.0,0.0,0.0,0.01
1648214230.0098739,10016,1648214230,9054256,fufi_imu_link,-0.003636211495288017,-0.009742762048778525,0.00779254452454064,0.9999155628369105,0.0,0.0,0.0,0.0,0.0,0.0,0.0,0.0,0.0,0.0041870297864079475,0.0036216164007782936,-0.004848746582865715,0.01,0.0,0.0,0.0,0.01,0.0,0.0,0.0,0.01,-0.3658304214477539,0.010679155588150024,9.850090980529785,0.01,0.0,0.0,0.0,0.01,0.0,0.0,0.0,0.01
1648214230.0104887,10017,1648214230,10006664,fufi_imu_link,-0.003613801482133171,-0.009607891766847792,0.007791973084428153,0.9999169535566921,0.0,0.0,0.0,0.0,0.0,0.0,0.0,0.0,0.0,0.009291032329201698,0.0011686868965625763,-0.001965019851922989,0.01,0.0,0.0,0.0,0.01,0.0,0.0,0.0,0.01,-0.3352978825569153,0.0019632671028375626,9.789633750915527,0.01,0.0,0.0,0.0,0.01,0.0,0.0,0.0,0.01
1648214230.038058,10018,1648214230,37237071,fufi_imu_link,-0.003645423350732518,-0.009356172630691913,0.007682052027943117,0.9999200763055709,0.0,0.0,0.0,0.0,0.0,0.0,0.0,0.0,0.0,-0.001052509993314743,0.0025743613950908184,-0.008126361295580864,0.01,0.0,0.0,0.0,0.01,0.0,0.0,0.0,0.01,-0.6481456160545349,-0.13321924209594727,9.534565925598145,0.01,0.0,0.0,0.0,0.01,0.0,0.0,0.0,0.01
1648214230.0758605,10019,1648214230,75206480,fufi_imu_link,-0.003739142846129129,-0.008925323680715169,0.007515899365932597,0.9999249315147072,0.0,0.0,0.0,0.0,0.0,0.0,0.0,0.0,0.0,-0.004455797374248505,0.00990024022758007,-0.00872812233865261,0.01,0.0,0.0,0.0,0.01,0.0,0.0,0.0,0.01,-0.7686943411827087,-0.10194972157478333,9.6541166305542,0.01,0.0,0.0,0.0,0.01,0.0,0.0,0.0,0.01
1648214230.0854287,10020,1648214230,84613515,fufi_imu_link,-0.003717934814329901,-0.008669770496377982,0.007507949611169026,0.9999273187251625,0.0,0.0,0.0,0.0,0.0,0.0,0.0,0.0,0.0,0.00744542246684432,0.0033886702731251717,-0.0019619911909103394,0.01,0.0,0.0,0.0,0.01,0.0,0.0,0.0,0.01,-0.7525937557220459,-0.11866505444049835,9.619428634643555,0.01,0.0,0.0,0.0,0.01,0.0,0.0,0.0,0.01
1648214230.150574,10021,1648214230,149944889,fufi_imu_link,-0.003425268015678716,-0.008316993561300263,0.007578832096505976,0.9999308258380553,0.0,0.0,0.0,0.0,0.0,0.0,0.0,0.0,0.0,0.008879278786480427,0.0027693333104252815,0.0020766444504261017,0.01,0.0,0.0,0.0,0.01,0.0,0.0,0.0,0.01,-0.8345507383346558,-0.044321633875370026,9.580340385437012,0.01,0.0,0.0,0.0,0.01,0.0,0.0,0.0,0.01
1648214230.1585693,10022,1648214230,157927262,fufi_imu_link,-0.0034001013467705493,-0.008040318036271551,0.007604454744407907,0.9999329801865461,0.0,0.0,0.0,0.0,0.0,0.0,0.0,0.0,0.0,0.003958227578550577,0.00502385338768363,0.006201619282364845,0.01,0.0,0.0,0.0,0.01,0.0,0.0,0.0,0.01,-0.8213693499565125,-0.021504899486899376,9.522476196289062,0.01,0.0,0.0,0.0,0.01,0.0,0.0,0.0,0.01
1648214230.2065325,10023,1648214230,205567490,fufi_imu_link,-0.0036323193189409953,-0.007657472071772496,0.0076965853653487605,0.9999344638282797,0.0,0.0,0.0,0.0,0.0,0.0,0.0,0.0,0.0,-0.00960940308868885,0.005989485420286655,0.0039277393370866776,0.01,0.0,0.0,0.0,0.01,0.0,0.0,0.0,0.01,-0.7894291877746582,-0.07039453089237213,9.731273651123047,0.01,0.0,0.0,0.0,0.01,0.0,0.0,0.0,0.01
1648214230.2148066,10024,1648214230,213981471,fufi_imu_link,-0.003645284994268562,-0.007422035015006373,0.00771252371159213,0.999936069092192,0.0,0.0,0.0,0.0,0.0,0.0,0.0,0.0,0.0,-0.0020615076646208763,0.0017193802632391453,0.003602663055062294,0.01,0.0,0.0,0.0,0.01,0.0,0.0,0.0,0.01,-0.7406137585639954,-0.08104247599840164,9.7146577835083,0.01,0.0,0.0,0.0,0.01,0.0,0.0,0.0,0.01
1648214230.2256963,10025,1648214230,224819268,fufi_imu_link,-0.0036475599975150513,-0.007196637930255482,0.007732048052316291,0.9999375576212157,0.0,0.0,0.0,0.0,0.0,0.0,0.0,0.0,0.0,0.0014595313696190715,0.0034607029519975185,0.0034507550299167633,0.01,0.0,0.0,0.0,0.01,0.0,0.0,0.0,0.01,-0.6474055647850037,-0.10195934772491455,9.517949104309082,0.01,0.0,0.0,0.0,0.01,0.0,0.0,0.0,0.01
1648214230.243265,10026,1648214230,242422490,fufi_imu_link,-0.0035053536673475736,-0.006967388732727774,0.007769008472343108,0.9999394034126621,0.0,0.0,0.0,0.0,0.0,0.0,0.0,0.0,0.0,0.015462614595890045,0.004764664452522993,0.004035633057355881,0.01,0.0,0.0,0.0,0.01,0.0,0.0,0.0,0.01,-0.5712648034095764,-0.036683958023786545,9.478355407714844,0.01,0.0,0.0,0.0,0.01,0.0,0.0,0.0,0.01
1648214230.2806892,10027,1648214230,280063936,fufi_imu_link,-0.003482554739163033,-0.006958291054093373,0.007893166336897536,0.9999385740750647,0.0,0.0,0.0,0.0,0.0,0.0,0.0,0.0,0.0,0.00024398858658969402,-0.007189486175775528,0.006549948826432228,0.01,0.0,0.0,0.0,0.01,0.0,0.0,0.0,0.01,-0.42373430728912354,0.005405670963227749,9.762983322143555,0.01,0.0,0.0,0.0,0.01,0.0,0.0,0.0,0.01
1648214230.2888124,10028,1648214230,288017520,fufi_imu_link,-0.0034692387104920002,-0.006844309627317311,0.007912195987704995,0.9999392566366956,0.0,0.0,0.0,0.0,0.0,0.0,0.0,0.0,0.0,0.003694790881127119,-0.00819108635187149,0.004598936066031456,0.01,0.0,0.0,0.0,0.01,0.0,0.0,0.0,0.01,-0.43580880761146545,-0.0700831413269043,9.756780624389648,0.01,0.0,0.0,0.0,0.01,0.0,0.0,0.0,0.01
1648214230.317845,10029,1648214230,317181645,fufi_imu_link,-0.0034489398874010284,-0.006722677267573239,0.007940011095557649,0.9999399315197948,0.0,0.0,0.0,0.0,0.0,0.0,0.0,0.0,0.0,0.0022200876846909523,0.0023295390419662,0.0018741823732852936,0.01,0.0,0.0,0.0,0.01,0.0,0.0,0.0,0.01,-0.20314812660217285,-0.10773973166942596,9.491106033325195,0.01,0.0,0.0,0.0,0.01,0.0,0.0,0.0,0.01
1648214230.345136,10030,1648214230,344451616,fufi_imu_link,-0.003246527148574687,-0.0068808087340634354,0.007837958589800997,0.9999403386891558,0.0,0.0,0.0,0.0,0.0,0.0,0.0,0.0,0.0,0.014095586724579334,-0.012669101357460022,-0.007622646167874336,0.01,0.0,0.0,0.0,0.01,0.0,0.0,0.0,0.01,0.08114126324653625,-0.032022543251514435,9.671595573425293,0.01,0.0,0.0,0.0,0.01,0.0,0.0,0.0,0.01
1648214230.3634226,10031,1648214230,362770450,fufi_imu_link,-0.003219377614484739,-0.007051111816241725,0.0077551839209002325,0.9999398854692632,0.0,0.0,0.0,0.0,0.0,0.0,0.0,0.0,0.0,0.0012320805108174682,-0.017253203317523003,-0.009087024256587029,0.01,0.0,0.0,0.0,0.01,0.0,0.0,0.0,0.01,0.1881239414215088,-0.009863260202109814,9.946279525756836,0.01,0.0,0.0,0.0,0.01,0.0,0.0,0.0,0.01
1648214230.3934333,10032,1648214230,392747922,fufi_imu_link,-0.0032433779877153795,-0.007031662329502338,0.007520015433930002,0.9999417410989433,0.0,0.0,0.0,0.0,0.0,0.0,0.0,0.0,0.0,-0.00022743691806681454,0.0032975776121020317,-0.015682192519307137,0.01,0.0,0.0,0.0,0.01,0.0,0.0,0.0,0.01,0.23964355885982513,-0.14418579638004303,9.370442390441895,0.01,0.0,0.0,0.0,0.01,0.0,0.0,0.0,0.01
1648214230.4299955,10033,1648214230,429046022,fufi_imu_link,-0.0032107164873930115,-0.006796001449081277,0.007283062337467009,0.9999452298335796,0.0,0.0,0.0,0.0,0.0,0.0,0.0,0.0,0.0,0.0012118229642510414,0.016748063266277313,-0.01299450546503067,0.01,0.0,0.0,0.0,0.01,0.0,0.0,0.0,0.01,0.3889342248439789,-0.021288573741912842,9.594084739685059,0.01,0.0,0.0,0.0,0.01,0.0,0.0,0.0,0.01
1648214230.443079,10034,1648214230,442137648,fufi_imu_link,-0.0031247742308555355,-0.006769833037370397,0.007203485069487023,0.999946256030546,0.0,0.0,0.0,0.0,0.0,0.0,0.0,0.0,0.0,0.013242308981716633,0.01339404471218586,-0.012175277806818485,0.01,0.0,0.0,0.0,0.01,0.0,0.0,0.0,0.01,0.359993577003479,-0.06399581581354141,9.438835144042969,0.01,0.0,0.0,0.0,0.01,0.0,0.0,0.0,0.01
1648214230.4851804,10035,1648214230,484276914,fufi_imu_link,-0.002902667519246602,-0.007004805127066985,0.007258482856688848,0.9999449093090197,0.0,0.0,0.0,0.0,0.0,0.0,0.0,0.0,0.0,0.011020800098776817,-0.008474048227071762,0.0025138668715953827,0.01,0.0,0.0,0.0,0.01,0.0,0.0,0.0,0.01,0.37338173389434814,-0.1051645502448082,10.051164627075195,0.01,0.0,0.0,0.0,0.01,0.0,0.0,0.0,0.01
1648214230.504207,10036,1648214230,503781215,fufi_imu_link,-0.003062559829065476,-0.007163583114225736,0.00733035866975008,0.9999427831861342,0.0,0.0,0.0,0.0,0.0,0.0,0.0,0.0,0.0,-0.015216064639389515,-0.008326278068125248,0.007469110190868378,0.01,0.0,0.0,0.0,0.01,0.0,0.0,0.0,0.01,0.43835893273353577,-0.10831371694803238,9.781452178955078,0.01,0.0,0.0,0.0,0.01,0.0,0.0,0.0,0.01
1648214230.512126,10037,1648214230,511928717,fufi_imu_link,-0.003163745954722562,-0.007269375676386011,0.007371076986702042,0.9999414053397657,0.0,0.0,0.0,0.0,0.0,0.0,0.0,0.0,0.0,-0.02903885208070278,-0.003014985704794526,0.01029874011874199,0.01,0.0,0.0,0.0,0.01,0.0,0.0,0.0,0.01,0.4926980137825012,0.0018172794952988625,9.564445495605469,0.01,0.0,0.0,0.0,0.01,0.0,0.0,0.0,0.01
1648214230.5593622,10038,1648214230,558949264,fufi_imu_link,-0.0027001203105176935,-0.007324175982913876,0.007744428339938998,0.9999395429855585,0.0,0.0,0.0,0.0,0.0,0.0,0.0,0.0,0.0,0.020740076899528503,0.0011867573484778404,0.01573803462088108,0.01,0.0,0.0,0.0,0.01,0.0,0.0,0.0,0.01,0.4811646342277527,-0.1380758285522461,9.740519523620605,0.01,0.0,0.0,0.0,0.01,0.0,0.0,0.0,0.01
1648214230.559645,10039,1648214230,559389688,fufi_imu_link,-0.0027071002810654596,-0.007358433996670551,0.007747527431930663,0.9999392485925714,0.0,0.0,0.0,0.0,0.0,0.0,0.0,0.0,0.0,0.007642242591828108,0.005835578776896,0.014192696660757065,0.01,0.0,0.0,0.0,0.01,0.0,0.0,0.0,0.01,0.27258172631263733,-0.08585801720619202,9.460824966430664,0.01,0.0,0.0,0.0,0.01,0.0,0.0,0.0,0.01
1648214230.5790484,10040,1648214230,578658273,fufi_imu_link,-0.0025916672904452444,-0.007483167373579532,0.007863388427705878,0.9999377243554468,0.0,0.0,0.0,0.0,0.0,0.0,0.0,0.0,0.0,0.012647821567952633,-0.005473611876368523,0.011934271082282066,0.01,0.0,0.0,0.0,0.01,0.0,0.0,0.0,0.01,0.43617433309555054,-0.07826723158359528,9.891962051391602,0.01,0.0,0.0,0.0,0.01,0.0,0.0,0.0,0.01
1648214230.5869844,10041,1648214230,586770323,fufi_imu_link,-0.002687210361381188,-0.007585952398525669,0.007913372293527947,0.9999363033541813,0.0,0.0,0.0,0.0,0.0,0.0,0.0,0.0,0.0,-0.01438857987523079,-0.006830703001469374,0.012395676225423813,0.01,0.0,0.0,0.0,0.01,0.0,0.0,0.0,0.01,0.44486600160598755,-0.2034112513065338,9.929780960083008,0.01,0.0,0.0,0.0,0.01,0.0,0.0,0.0,0.01
1648214230.6344087,10042,1648214230,633819961,fufi_imu_link,-0.0025904222253479883,-0.007413098480426479,0.008055701132732934,0.9999367186791742,0.0,0.0,0.0,0.0,0.0,0.0,0.0,0.0,0.0,0.006399919744580984,0.008009163662791252,0.006009366363286972,0.01,0.0,0.0,0.0,0.01,0.0,0.0,0.0,0.01,0.20122817158699036,-0.24161073565483093,9.385759353637695,0.01,0.0,0.0,0.0,0.01,0.0,0.0,0.0,0.01
1648214230.6355748,10043,1648214230,634757599,fufi_imu_link,-0.0025996443539892254,-0.007467627349794847,0.008057712546242437,0.9999362727991817,0.0,0.0,0.0,0.0,0.0,0.0,0.0,0.0,0.0,-0.02553473971784115,0.014314219355583191,0.004908742383122444,0.01,0.0,0.0,0.0,0.01,0.0,0.0,0.0,0.01,0.36522650718688965,-0.040878381580114365,9.302685737609863,0.01,0.0,0.0,0.0,0.01,0.0,0.0,0.0,0.01
1648214230.7008142,10044,1648214230,700157134,fufi_imu_link,-0.0024969006722855786,-0.007229212957189461,0.007814311739530028,0.9999402184626288,0.0,0.0,0.0,0.0,0.0,0.0,0.0,0.0,0.0,0.0035878499038517475,0.007002531550824642,-0.007456472143530846,0.01,0.0,0.0,0.0,0.01,0.0,0.0,0.0,0.01,0.10272400826215744,-0.10397196561098099,9.566112518310547,0.01,0.0,0.0,0.0,0.01,0.0,0.0,0.0,0.01
1648214230.7101858,10045,1648214230,709434846,fufi_imu_link,-0.0025215250432101435,-0.007200314187088434,0.007740993432917346,0.9999409354595576,0.0,0.0,0.0,0.0,0.0,0.0,0.0,0.0,0.0,-0.004525677766650915,0.00818532146513462,-0.01575417071580887,0.01,0.0,0.0,0.0,0.01,0.0,0.0,0.0,0.01,0.17165149748325348,-0.06471584737300873,9.630742073059082,0.01,0.0,0.0,0.0,0.01,0.0,0.0,0.0,0.01
1648214230.755959,10046,1648214230,755287698,fufi_imu_link,-0.0025843226527061556,-0.007197435345461014,0.007009329193258946,0.9999461923049336,0.0,0.0,0.0,0.0,0.0,0.0,0.0,0.0,0.0,-0.0028069154359400272,-0.0012628957629203796,-0.03190351277589798,0.01,0.0,0.0,0.0,0.01,0.0,0.0,0.0,0.01,0.007168816868215799,-0.06470859795808792,9.597436904907227,0.01,0.0,0.0,0.0,0.01,0.0,0.0,0.0,0.01
1648214230.775599,10047,1648214230,774832280,fufi_imu_link,-0.002609269378185221,-0.007140153585373542,0.0066895473653437055,0.9999487286236911,0.0,0.0,0.0,0.0,0.0,0.0,0.0,0.0,0.0,-0.002701818710193038,0.003301207907497883,-0.03270459920167923,0.01,0.0,0.0,0.0,0.01,0.0,0.0,0.0,0.01,0.0370413213968277,-0.052396491169929504,9.541784286499023,0.01,0.0,0.0,0.0,0.01,0.0,0.0,0.0,0.01
1648214230.7932556,10048,1648214230,792406323,fufi_imu_link,-0.0025551826232260654,-0.007049082410872195,0.0064066609559900265,0.9999513669045719,0.0,0.0,0.0,0.0,0.0,0.0,0.0,0.0,0.0,0.005271684844046831,0.006471989676356316,-0.03222138434648514,0.01,0.0,0.0,0.0,0.01,0.0,0.0,0.0,0.01,0.0027944501489400864,-0.025190172716975212,9.419439315795898,0.01,0.0,0.0,0.0,0.01,0.0,0.0,0.0,0.01
1648214230.8311315,10049,1648214230,830188240,fufi_imu_link,-0.0023664451161264765,-0.007220414751251252,0.006107462296195831,0.9999524810972934,0.0,0.0,0.0,0.0,0.0,0.0,0.0,0.0,0.0,0.008899841457605362,-0.009526186622679234,-0.01592046394944191,0.01,0.0,0.0,0.0,0.01,0.0,0.0,0.0,0.01,0.11059750616550446,0.020865945145487785,9.92129898071289,0.01,0.0,0.0,0.0,0.01,0.0,0.0,0.0,0.01
1648214230.8389587,10050,1648214230,838138561,fufi_imu_link,-0.0022920118769292146,-0.007253377292163221,0.006066284798034509,0.9999526665738547,0.0,0.0,0.0,0.0,0.0,0.0,0.0,0.0,0.0,0.004079905338585377,-0.011894668452441692,-0.010320253670215607,0.01,0.0,0.0,0.0,0.01,0.0,0.0,0.0,0.01,0.08754634857177734,0.17965881526470184,9.815765380859375,0.01,0.0,0.0,0.0,0.01,0.0,0.0,0.0,0.01
1648214230.8679757,10051,1648214230,867254893,fufi_imu_link,-0.0024828808810238635,-0.00741775459145041,0.006140335824719386,0.999950553025154,0.0,0.0,0.0,0.0,0.0,0.0,0.0,0.0,0.0,-0.012854909524321556,-0.01321196835488081,0.005142543464899063,0.01,0.0,0.0,0.0,0.01,0.0,0.0,0.0,0.01,0.03192877024412155,-0.06533685326576233,9.721887588500977,0.01,0.0,0.0,0.0,0.01,0.0,0.0,0.0,0.01
1648214230.8953283,10052,1648214230,894421944,fufi_imu_link,-0.002442723803705006,-0.007393816413930641,0.006415211086491126,0.9999491035277606,0.0,0.0,0.0,0.0,0.0,0.0,0.0,0.0,0.0,0.0021576364524662495,0.00019859196618199348,0.020224709063768387,0.01,0.0,0.0,0.0,0.01,0.0,0.0,0.0,0.01,0.06367453932762146,0.001981518231332302,9.534335136413574,0.01,0.0,0.0,0.0,0.01,0.0,0.0,0.0,0.01
1648214230.9136074,10053,1648214230,912940371,fufi_imu_link,-0.002501228957861776,-0.007374076587874639,0.00663818270984164,0.9999476493189468,0.0,0.0,0.0,0.0,0.0,0.0,0.0,0.0,0.0,-0.0006257393397390842,-0.001212186412885785,0.024034935981035233,0.01,0.0,0.0,0.0,0.01,0.0,0.0,0.0,0.01,0.023798003792762756,-0.24597471952438354,9.692291259765625,0.01,0.0,0.0,0.0,0.01,0.0,0.0,0.0,0.01
1648214230.9797227,10054,1648214230,978993818,fufi_imu_link,-0.002456444344114182,-0.007198028421320449,0.0068011898203381655,0.9999479476878074,0.0,0.0,0.0,0.0,0.0,0.0,0.0,0.0,0.0,0.0017873788019642234,0.0058061652816832066,0.004935912787914276,0.01,0.0,0.0,0.0,0.01,0.0,0.0,0.0,0.01,0.1952647566795349,-0.09100461006164551,9.342201232910156,0.01,0.0,0.0,0.0,0.01,0.0,0.0,0.0,0.01
1648214230.9881265,10055,1648214230,987591506,fufi_imu_link,-0.0025020042741514324,-0.00711507304867028,0.0068000186922398415,0.9999484363985522,0.0,0.0,0.0,0.0,0.0,0.0,0.0,0.0,0.0,-0.0013393985573202372,0.015072101727128029,-0.0003015883266925812,0.01,0.0,0.0,0.0,0.01,0.0,0.0,0.0,0.01,0.06469782441854477,-0.19597817957401276,9.456287384033203,0.01,0.0,0.0,0.0,0.01,0.0,0.0,0.0,0.01
1648214231.026646,10056,1648214231,25980860,fufi_imu_link,-0.0026152410591158714,-0.007133406246850566,0.00670627959419046,0.999948649103305,0.0,0.0,0.0,0.0,0.0,0.0,0.0,0.0,0.0,-0.0045855394564569,0.0006932727992534637,-0.004854774102568626,0.01,0.0,0.0,0.0,0.01,0.0,0.0,0.0,0.01,0.24701237678527832,-0.14653721451759338,9.345038414001465,0.01,0.0,0.0,0.0,0.01,0.0,0.0,0.0,0.01
1648214231.054468,10057,1648214231,53890517,fufi_imu_link,-0.002669703965733621,-0.006991621506869398,0.006552035504269602,0.9999505291464128,0.0,0.0,0.0,0.0,0.0,0.0,0.0,0.0,0.0,-0.0010267260950058699,0.01164181251078844,-0.01103202160447836,0.01,0.0,0.0,0.0,0.01,0.0,0.0,0.0,0.01,0.20645134150981903,-0.20260997116565704,9.437305450439453,0.01,0.0,0.0,0.0,0.01,0.0,0.0,0.0,0.01
1648214231.063062,10058,1648214231,62415941,fufi_imu_link,-0.002621421772102126,-0.007005802921754702,0.006505681251123517,0.9999508602850308,0.0,0.0,0.0,0.0,0.0,0.0,0.0,0.0,0.0,0.011607787571847439,0.005009336397051811,-0.010922586545348167,0.01,0.0,0.0,0.0,0.01,0.0,0.0,0.0,0.01,0.2742864787578583,-0.058132585138082504,9.725147247314453,0.01,0.0,0.0,0.0,0.01,0.0,0.0,0.0,0.01
1648214231.1094067,10059,1648214231,108970280,fufi_imu_link,-0.0025700722270406576,-0.007433205577939474,0.006278057791532132,0.9999493628049123,0.0,0.0,0.0,0.0,0.0,0.0,0.0,0.0,0.0,0.0029197956901043653,-0.01551738753914833,-0.009839547798037529,0.01,0.0,0.0,0.0,0.01,0.0,0.0,0.0,0.01,0.3950059413909912,-0.13062989711761475,9.610360145568848,0.01,0.0,0.0,0.0,0.01,0.0,0.0,0.0,0.01
1648214231.1097488,10060,1648214231,109303904,fufi_imu_link,-0.0026040032873386773,-0.007470865713698967,0.006276936905679321,0.999949001397296,0.0,0.0,0.0,0.0,0.0,0.0,0.0,0.0,0.0,-0.006496540270745754,-0.005883240606635809,-0.007572587579488754,0.01,0.0,0.0,0.0,0.01,0.0,0.0,0.0,0.01,0.279562383890152,-0.17554469406604767,9.498403549194336,0.01,0.0,0.0,0.0,0.01,0.0,0.0,0.0,0.01
1648214231.1289144,10061,1648214231,128593649,fufi_imu_link,-0.002702663709137823,-0.007467572865525001,0.006197425027875787,0.9999492601564327,0.0,0.0,0.0,0.0,0.0,0.0,0.0,0.0,0.0,-0.0077918958850204945,0.005949664395302534,-0.008173778653144836,0.01,0.0,0.0,0.0,0.01,0.0,0.0,0.0,0.01,0.34383028745651245,-0.1436152160167694,9.519216537475586,0.01,0.0,0.0,0.0,0.01,0.0,0.0,0.0,0.01
1648214231.1372368,10062,1648214231,136851556,fufi_imu_link,-0.0027279912629872474,-0.007466257671807862,0.0061659036125034285,0.9999493960659652,0.0,0.0,0.0,0.0,0.0,0.0,0.0,0.0,0.0,-0.002545255469158292,0.01425367034971714,-0.007565036416053772,0.01,0.0,0.0,0.0,0.01,0.0,0.0,0.0,0.01,0.3577067255973816,-0.10943148285150528,9.48260498046875,0.01,0.0,0.0,0.0,0.01,0.0,0.0,0.0,0.01
1648214231.184243,10063,1648214231,183803582,fufi_imu_link,-0.0026518147094429074,-0.007567247844087381,0.006207798922710989,0.9999485826138004,0.0,0.0,0.0,0.0,0.0,0.0,0.0,0.0,0.0,0.0049493154510855675,-0.004378356970846653,0.0017227083444595337,0.01,0.0,0.0,0.0,0.01,0.0,0.0,0.0,0.01,0.14255011081695557,-0.209207683801651,9.750499725341797,0.01,0.0,0.0,0.0,0.01,0.0,0.0,0.0,0.01
1648214231.1846616,10064,1648214231,184239811,fufi_imu_link,-0.00268991656105742,-0.007558513595197939,0.0062080688530699235,0.9999485452273239,0.0,0.0,0.0,0.0,0.0,0.0,0.0,0.0,0.0,0.0025890693068504333,-0.005452738609164953,-0.0002582743763923645,0.01,0.0,0.0,0.0,0.01,0.0,0.0,0.0,0.01,0.10727612674236298,-0.20255935192108154,9.716923713684082,0.01,0.0,0.0,0.0,0.01,0.0,0.0,0.0,0.01
1648214231.2508945,10065,1648214231,250272440,fufi_imu_link,-0.0027822755879701273,-0.007947692263742145,0.005760744840101063,0.9999479521200695,0.0,0.0,0.0,0.0,0.0,0.0,0.0,0.0,0.0,-0.002722975565120578,-0.010762741789221764,-0.013556797988712788,0.01,0.0,0.0,0.0,0.01,0.0,0.0,0.0,0.01,0.28122347593307495,-0.08779360353946686,9.824195861816406,0.01,0.0,0.0,0.0,0.01,0.0,0.0,0.0,0.01
1648214231.2605405,10066,1648214231,259832314,fufi_imu_link,-0.002791599963209647,-0.007999367843455696,0.0057159464392187685,0.9999477711561011,0.0,0.0,0.0,0.0,0.0,0.0,0.0,0.0,0.0,0.00038666834007017314,-0.009944045916199684,-0.009420724585652351,0.01,0.0,0.0,0.0,0.01,0.0,0.0,0.0,0.01,0.17459967732429504,-0.10332287847995758,9.950550079345703,0.01,0.0,0.0,0.0,0.01,0.0,0.0,0.0,0.01
1648214231.3062227,10067,1648214231,305417194,fufi_imu_link,-0.002906831014030097,-0.0076715347058619624,0.005735140591323148,0.9999499017706389,0.0,0.0,0.0,0.0,0.0,0.0,0.0,0.0,0.0,-0.005588380619883537,0.016118638217449188,0.0009417664259672165,0.01,0.0,0.0,0.0,0.01,0.0,0.0,0.0,0.01,0.2869895398616791,-0.0023752395063638687,9.311758041381836,0.01,0.0,0.0,0.0,0.01,0.0,0.0,0.0,0.01
1648214231.3257086,10068,1648214231,324871828,fufi_imu_link,-0.0027191220005277268,-0.007702001748646016,0.005812464314745128,0.9999497491390255,0.0,0.0,0.0,0.0,0.0,0.0,0.0,0.0,0.0,0.016601907089352608,0.00012928340584039688,0.007853079587221146,0.01,0.0,0.0,0.0,0.01,0.0,0.0,0.0,0.01,0.27506697177886963,0.04892037808895111,9.642845153808594,0.01,0.0,0.0,0.0,0.01,0.0,0.0,0.0,0.01
1648214231.3429987,10069,1648214231,342437474,fufi_imu_link,-0.002495698053430122,-0.007789348444884547,0.00589224049880603,0.9999491882310494,0.0,0.0,0.0,0.0,0.0,0.0,0.0,0.0,0.0,0.020916111767292023,-0.007642863783985376,0.008943375200033188,0.01,0.0,0.0,0.0,0.01,0.0,0.0,0.0,0.01,0.2353135347366333,0.10468785464763641,9.720987319946289,0.01,0.0,0.0,0.0,0.01,0.0,0.0,0.0,0.01
1648214231.3808672,10070,1648214231,380203166,fufi_imu_link,-0.002704974558545471,-0.007578613307707709,0.006022167773490844,0.9999494893384755,0.0,0.0,0.0,0.0,0.0,0.0,0.0,0.0,0.0,-0.010197375901043415,0.010594705119729042,0.006979454308748245,0.01,0.0,0.0,0.0,0.01,0.0,0.0,0.0,0.01,0.10077056288719177,-0.10785920172929764,9.582442283630371,0.01,0.0,0.0,0.0,0.01,0.0,0.0,0.0,0.01
1648214231.3888679,10071,1648214231,388066662,fufi_imu_link,-0.0027153906740904933,-0.00750593150209428,0.006048579023719502,0.9999498499112677,0.0,0.0,0.0,0.0,0.0,0.0,0.0,0.0,0.0,-0.005673028528690338,0.007741502020508051,0.006775379180908203,0.01,0.0,0.0,0.0,0.01,0.0,0.0,0.0,0.01,-0.01721900887787342,-0.0050315093249082565,9.406408309936523,0.01,0.0,0.0,0.0,0.01,0.0,0.0,0.0,0.01
1648214231.4182868,10072,1648214231,417753657,fufi_imu_link,-0.0027865634852633613,-0.00746905167907709,0.006083945889723359,0.9999497157024292,0.0,0.0,0.0,0.0,0.0,0.0,0.0,0.0,0.0,-0.0033787249121814966,-0.00017983093857765198,0.002389628440141678,0.01,0.0,0.0,0.0,0.01,0.0,0.0,0.0,0.01,-0.009332241490483284,-0.1330602765083313,9.61701774597168,0.01,0.0,0.0,0.0,0.01,0.0,0.0,0.0,0.01
1648214231.4447181,10073,1648214231,444145662,fufi_imu_link,-0.0029185345475756575,-0.0074967157032944905,0.006069809504318929,0.9999492181217703,0.0,0.0,0.0,0.0,0.0,0.0,0.0,0.0,0.0,-0.010563843883574009,-0.004967473912984133,-0.001011032611131668,0.01,0.0,0.0,0.0,0.01,0.0,0.0,0.0,0.01,-0.004403183236718178,-0.029745694249868393,9.662541389465332,0.01,0.0,0.0,0.0,0.01,0.0,0.0,0.0,0.01
1648214231.4552867,10074,1648214231,454760822,fufi_imu_link,-0.0028787110463937902,-0.007490481791816973,0.006059158773348699,0.9999494448721882,0.0,0.0,0.0,0.0,0.0,0.0,0.0,0.0,0.0,0.007727690972387791,-0.006470104679465294,-0.0021079443395137787,0.01,0.0,0.0,0.0,0.01,0.0,0.0,0.0,0.01,-0.010983776301145554,-0.062180470675230026,9.806869506835938,0.01,0.0,0.0,0.0,0.01,0.0,0.0,0.0,0.01
1648214231.4631438,10075,1648214231,462720314,fufi_imu_link,-0.002924773398888817,-0.007487821137927376,0.006049315958665137,0.9999493907251527,0.0,0.0,0.0,0.0,0.0,0.0,0.0,0.0,0.0,-0.011209094896912575,-0.002758910646662116,-0.002410721033811569,0.01,0.0,0.0,0.0,0.01,0.0,0.0,0.0,0.01,0.08883173018693924,-0.06188506260514259,9.460905075073242,0.01,0.0,0.0,0.0,0.01,0.0,0.0,0.0,0.01
1648214231.4934773,10076,1648214231,491951683,fufi_imu_link,-0.002919871126127636,-0.00762339151131059,0.006018190933845831,0.9999485684935782,0.0,0.0,0.0,0.0,0.0,0.0,0.0,0.0,0.0,0.0012413313379511237,-0.011953247711062431,-0.0021894238889217377,0.01,0.0,0.0,0.0,0.01,0.0,0.0,0.0,0.01,-0.0038211625069379807,-0.11394714564085007,9.803258895874023,0.01,0.0,0.0,0.0,0.01,0.0,0.0,0.0,0.01
1648214231.5296721,10077,1648214231,529037704,fufi_imu_link,-0.0030796978370967306,-0.007868432791962709,0.0060466443591817185,0.9999460192023488,0.0,0.0,0.0,0.0,0.0,0.0,0.0,0.0,0.0,-0.011722933501005173,-0.01332813873887062,0.0016082748770713806,0.01,0.0,0.0,0.0,0.01,0.0,0.0,0.0,0.01,0.1430121809244156,0.15916629135608673,9.851093292236328,0.01,0.0,0.0,0.0,0.01,0.0,0.0,0.0,0.01
1648214231.5379515,10078,1648214231,537506407,fufi_imu_link,-0.0031529810582687063,-0.007931192825855736,0.006067807107918066,0.9999451668005134,0.0,0.0,0.0,0.0,0.0,0.0,0.0,0.0,0.0,-0.02034885250031948,-0.0031866529025137424,0.00520959310233593,0.01,0.0,0.0,0.0,0.01,0.0,0.0,0.0,0.01,0.3404408097267151,-0.013089735060930252,9.64458179473877,0.01,0.0,0.0,0.0,0.01,0.0,0.0,0.0,0.01
1648214231.576649,10079,1648214231,575979657,fufi_imu_link,-0.0029528387191926062,-0.008147651112434175,0.006285386872358847,0.9999426935763436,0.0,0.0,0.0,0.0,0.0,0.0,0.0,0.0,0.0,0.008686193265020847,-0.008193528279662132,0.011240355670452118,0.01,0.0,0.0,0.0,0.01,0.0,0.0,0.0,0.01,0.3833782374858856,0.06924382597208023,9.474748611450195,0.01,0.0,0.0,0.0,0.01,0.0,0.0,0.0,0.01
1648214231.6048846,10080,1648214231,604019491,fufi_imu_link,-0.0029751160723171504,-0.008410703568059712,0.00644462460102747,0.9999394359477969,0.0,0.0,0.0,0.0,0.0,0.0,0.0,0.0,0.0,-0.0004380111931823194,-0.016612742096185684,0.011309992522001266,0.01,0.0,0.0,0.0,0.01,0.0,0.0,0.0,0.01,0.28360632061958313,-0.12386441975831985,9.805113792419434,0.01,0.0,0.0,0.0,0.01,0.0,0.0,0.0,0.01
1648214231.6133666,10081,1648214231,612582427,fufi_imu_link,-0.003021255426439178,-0.00848703038764553,0.006476103276316403,0.9999384493143576,0.0,0.0,0.0,0.0,0.0,0.0,0.0,0.0,0.0,-0.0043686567805707455,-0.008905833587050438,0.007336203008890152,0.01,0.0,0.0,0.0,0.01,0.0,0.0,0.0,0.01,0.3140490651130676,-0.1681520938873291,9.79236888885498,0.01,0.0,0.0,0.0,0.01,0.0,0.0,0.0,0.01
1648214231.6598935,10082,1648214231,659125009,fufi_imu_link,-0.0030950530261706004,-0.00835041610964045,0.006087855867985805,0.9999418129113774,0.0,0.0,0.0,0.0,0.0,0.0,0.0,0.0,0.0,-0.002358023077249527,0.006577673368155956,-0.016650233417749405,0.01,0.0,0.0,0.0,0.01,0.0,0.0,0.0,0.01,0.21476566791534424,-0.1407228708267212,9.521535873413086,0.01,0.0,0.0,0.0,0.01,0.0,0.0,0.0,0.01
1648214231.6606898,10083,1648214231,660090938,fufi_imu_link,-0.0030983701842516326,-0.00836548947109446,0.006080438683214776,0.9999417217785895,0.0,0.0,0.0,0.0,0.0,0.0,0.0,0.0,0.0,0.017610322684049606,0.0007543195970356464,-0.015607756562530994,0.01,0.0,0.0,0.0,0.01,0.0,0.0,0.0,0.01,0.21998992562294006,-0.10667335987091064,9.638158798217773,0.01,0.0,0.0,0.0,0.01,0.0,0.0,0.0,0.01
1648214231.6793942,10084,1648214231,678983995,fufi_imu_link,-0.0029831950537951265,-0.008424971185100789,0.005879001268764268,0.9999427772387194,0.0,0.0,0.0,0.0,0.0,0.0,0.0,0.0,0.0,0.016365472227334976,-0.007103416137397289,-0.021523410454392433,0.01,0.0,0.0,0.0,0.01,0.0,0.0,0.0,0.01,0.1348462551832199,-0.2204710990190506,9.763840675354004,0.01,0.0,0.0,0.0,0.01,0.0,0.0,0.0,0.01
1648214231.6873665,10085,1648214231,686910294,fufi_imu_link,-0.0029787023717975434,-0.008454054134522033,0.005786156347847854,0.9999430867282343,0.0,0.0,0.0,0.0,0.0,0.0,0.0,0.0,0.0,0.00708202738314867,-0.006949039176106453,-0.023559901863336563,0.01,0.0,0.0,0.0,0.01,0.0,0.0,0.0,0.01,0.17142021656036377,-0.1559685468673706,9.85788345336914,0.01,0.0,0.0,0.0,0.01,0.0,0.0,0.0,0.01
1648214231.7342205,10086,1648214231,733831198,fufi_imu_link,-0.002626515395186641,-0.008386018216903001,0.005200459951055329,0.9999478643067559,0.0,0.0,0.0,0.0,0.0,0.0,0.0,0.0,0.0,0.01617191918194294,0.00473951268941164,-0.02509552799165249,0.01,0.0,0.0,0.0,0.01,0.0,0.0,0.0,0.01,0.3229297399520874,-0.170621857047081,9.48503589630127,0.01,0.0,0.0,0.0,0.01,0.0,0.0,0.0,0.01
1648214231.7344348,10087,1648214231,734180913,fufi_imu_link,-0.0026490208461159956,-0.008397045104603278,0.005196684828117734,0.9999477320284623,0.0,0.0,0.0,0.0,0.0,0.0,0.0,0.0,0.0,0.01386597566306591,0.004889342468231916,-0.022707976400852203,0.01,0.0,0.0,0.0,0.01,0.0,0.0,0.0,0.01,0.20456984639167786,-0.14637939631938934,9.53738784790039,0.01,0.0,0.0,0.0,0.01,0.0,0.0,0.0,0.01
1648214231.7999957,10088,1648214231,799676128,fufi_imu_link,-0.003030075247444974,-0.007918539173920545,0.00527848472021038,0.9999501252464568,0.0,0.0,0.0,0.0,0.0,0.0,0.0,0.0,0.0,-0.0112200528383255,0.0157100111246109,0.002634631469845772,0.01,0.0,0.0,0.0,0.01,0.0,0.0,0.0,0.01,0.2740405201911926,-0.09589440375566483,9.312779426574707,0.01,0.0,0.0,0.0,0.01,0.0,0.0,0.0,0.01
1648214231.8092842,10089,1648214231,808959619,fufi_imu_link,-0.0029761925104197923,-0.007943490935010013,0.00531946159037993,0.9999498720227405,0.0,0.0,0.0,0.0,0.0,0.0,0.0,0.0,0.0,0.007103638723492622,0.008539069443941116,0.008876791223883629,0.01,0.0,0.0,0.0,0.01,0.0,0.0,0.0,0.01,0.39906254410743713,0.02262048050761223,9.558379173278809,0.01,0.0,0.0,0.0,0.01,0.0,0.0,0.0,0.01
1648214231.8754773,10090,1648214231,874913781,fufi_imu_link,-0.003449492711568945,-0.007932293537929099,0.005577597650207556,0.9999470336591401,0.0,0.0,0.0,0.0,0.0,0.0,0.0,0.0,0.0,-0.01525780837982893,0.0007000593468546867,0.007960198447108269,0.01,0.0,0.0,0.0,0.01,0.0,0.0,0.0,0.01,0.18539807200431824,0.053580015897750854,9.327363967895508,0.01,0.0,0.0,0.0,0.01,0.0,0.0,0.0,0.01
1648214231.893535,10091,1648214231,892844683,fufi_imu_link,-0.0033965185726252656,-0.007927321890486476,0.005608595505038022,0.9999470810426376,0.0,0.0,0.0,0.0,0.0,0.0,0.0,0.0,0.0,0.005623543635010719,-0.0004036654718220234,0.0034109652042388916,0.01,0.0,0.0,0.0,0.01,0.0,0.0,0.0,0.01,0.11820600926876068,-0.05418725311756134,9.412569046020508,0.01,0.0,0.0,0.0,0.01,0.0,0.0,0.0,0.01
1648214231.9307797,10092,1648214231,930166304,fufi_imu_link,-0.00348768693793086,-0.007887799663463186,0.005585708095133446,0.9999472078671795,0.0,0.0,0.0,0.0,0.0,0.0,0.0,0.0,0.0,-0.005380994640290737,0.0008327406831085682,-0.0011818725615739822,0.01,0.0,0.0,0.0,0.01,0.0,0.0,0.0,0.01,0.05853334814310074,-0.03307240083813667,9.825284957885742,0.01,0.0,0.0,0.0,0.01,0.0,0.0,0.0,0.01
1648214231.9395928,10093,1648214231,938808555,fufi_imu_link,-0.003538293403816067,-0.007879882820067942,0.005578613958650453,0.9999471320989081,0.0,0.0,0.0,0.0,0.0,0.0,0.0,0.0,0.0,-0.01070503517985344,-0.00346191693097353,-0.0015968158841133118,0.01,0.0,0.0,0.0,0.01,0.0,0.0,0.0,0.01,0.06392049044370651,-0.08761309832334518,9.844070434570312,0.01,0.0,0.0,0.0,0.01,0.0,0.0,0.0,0.01
1648214231.950415,10094,1648214231,949721564,fufi_imu_link,-0.0036503023114423496,-0.007880556797235544,0.005556771741710707,0.9999468457900206,0.0,0.0,0.0,0.0,0.0,0.0,0.0,0.0,0.0,-0.01984928734600544,-0.002010531723499298,-0.0038669686764478683,0.01,0.0,0.0,0.0,0.01,0.0,0.0,0.0,0.01,0.1124669760465622,-0.08853563666343689,9.913841247558594,0.01,0.0,0.0,0.0,0.01,0.0,0.0,0.0,0.01
1648214231.967698,10095,1648214231,967205696,fufi_imu_link,-0.0036973831075312446,-0.007855318783844871,0.005519483018661001,0.9999470779157101,0.0,0.0,0.0,0.0,0.0,0.0,0.0,0.0,0.0,-0.007388493046164513,0.004313476849347353,-0.004170939326286316,0.01,0.0,0.0,0.0,0.01,0.0,0.0,0.0,0.01,0.19695612788200378,-0.00548686645925045,9.618114471435547,0.01,0.0,0.0,0.0,0.01,0.0,0.0,0.0,0.01
1648214232.0050871,10096,1648214232,4674580,fufi_imu_link,-0.003407754178775794,-0.00788726728655368,0.0055016532832639605,0.9999479536642686,0.0,0.0,0.0,0.0,0.0,0.0,0.0,0.0,0.0,0.015999266877770424,-0.0018885363824665546,-0.0010891444981098175,0.01,0.0,0.0,0.0,0.01,0.0,0.0,0.0,0.01,0.14860567450523376,-0.109707772731781,9.920965194702148,0.01,0.0,0.0,0.0,0.01,0.0,0.0,0.0,0.01
1648214232.0130346,10097,1648214232,12567749,fufi_imu_link,-0.0033653336361899474,-0.007908774201861347,0.005502036138554787,0.9999479253533512,0.0,0.0,0.0,0.0,0.0,0.0,0.0,0.0,0.0,0.008371349424123764,-0.009415911510586739,3.887340426445007e-06,0.01,0.0,0.0,0.0,0.01,0.0,0.0,0.0,0.01,0.09539163112640381,-0.030963649973273277,9.891613006591797,0.01,0.0,0.0,0.0,0.01,0.0,0.0,0.0,0.01
1648214232.042273,10098,1648214232,41944784,fufi_imu_link,-0.0035401909866263587,-0.007985018000138289,0.0054233725976456214,0.9999471453856863,0.0,0.0,0.0,0.0,0.0,0.0,0.0,0.0,0.0,-0.010257185436785221,-0.005948078818619251,-0.005311310291290283,0.01,0.0,0.0,0.0,0.01,0.0,0.0,0.0,0.01,0.10521350055932999,-0.16438058018684387,9.54981803894043,0.01,0.0,0.0,0.0,0.01,0.0,0.0,0.0,0.01
1648214232.0804892,10099,1648214232,79142934,fufi_imu_link,-0.0035785442262323886,-0.008164151597856256,0.005245632661864942,0.9999465105633826,0.0,0.0,0.0,0.0,0.0,0.0,0.0,0.0,0.0,0.0007864836370572448,-0.010306132957339287,-0.009626485407352448,0.01,0.0,0.0,0.0,0.01,0.0,0.0,0.0,0.01,0.10270100831985474,-0.27443623542785645,9.367912292480469,0.01,0.0,0.0,0.0,0.01,0.0,0.0,0.0,0.01
1648214232.0877893,10100,1648214232,87437743,fufi_imu_link,-0.0034828921971427717,-0.008230951810671572,0.005198530854145891,0.999946546656966,0.0,0.0,0.0,0.0,0.0,0.0,0.0,0.0,0.0,0.024633152410387993,-0.015226047486066818,-0.011624046601355076,0.01,0.0,0.0,0.0,0.01,0.0,0.0,0.0,0.01,0.17746782302856445,-0.0979255959391594,9.852436065673828,0.01,0.0,0.0,0.0,0.01,0.0,0.0,0.0,0.01
1648214232.1261888,10101,1648214232,125791669,fufi_imu_link,-0.003781435478285528,-0.008143720676048497,0.004838653968921218,0.9999479826406188,0.0,0.0,0.0,0.0,0.0,0.0,0.0,0.0,0.0,-0.01444914098829031,0.005223083309829235,-0.01863803341984749,0.01,0.0,0.0,0.0,0.01,0.0,0.0,0.0,0.01,0.18952493369579315,-0.16045570373535156,9.34287166595459,0.01,0.0,0.0,0.0,0.01,0.0,0.0,0.0,0.01
1648214232.1549022,10102,1648214232,153992592,fufi_imu_link,-0.0036888741594425,-0.008264029384709173,0.004628638336372829,0.9999483355318493,0.0,0.0,0.0,0.0,0.0,0.0,0.0,0.0,0.0,0.003686733776703477,-0.0028069938998669386,-0.01489182561635971,0.01,0.0,0.0,0.0,0.01,0.0,0.0,0.0,0.01,0.4605036973953247,0.07408532500267029,9.491005897521973,0.01,0.0,0.0,0.0,0.01,0.0,0.0,0.0,0.01
1648214232.1631572,10103,1648214232,162451517,fufi_imu_link,-0.0036032193664708,-0.008377693023438866,0.004586933372019152,0.9999478941985142,0.0,0.0,0.0,0.0,0.0,0.0,0.0,0.0,0.0,0.018935570493340492,-0.010012607090175152,-0.009982984513044357,0.01,0.0,0.0,0.0,0.01,0.0,0.0,0.0,0.01,0.44573965668678284,-0.053348805755376816,9.85389232635498,0.01,0.0,0.0,0.0,0.01,0.0,0.0,0.0,0.01
1648214232.2098536,10104,1648214232,209117332,fufi_imu_link,-0.004336255305189853,-0.00901297329084949,0.004619131042801754,0.9999393115738556,0.0,0.0,0.0,0.0,0.0,0.0,0.0,0.0,0.0,-0.03282085061073303,-0.010545307770371437,0.0017017405480146408,0.01,0.0,0.0,0.0,0.01,0.0,0.0,0.0,0.01,1.6272590160369873,0.031653568148612976,9.379717826843262,0.01,0.0,0.0,0.0,0.01,0.0,0.0,0.0,0.01
1648214232.210622,10105,1648214232,209973963,fufi_imu_link,-0.0043787682505857925,-0.009353093139382524,0.004618984125846167,0.9999360034637111,0.0,0.0,0.0,0.0,0.0,0.0,0.0,0.0,0.0,-0.00113324832636863,-0.042931247502565384,0.00188484787940979,0.01,0.0,0.0,0.0,0.01,0.0,0.0,0.0,0.01,1.5028014183044434,-0.2680056691169739,10.165373802185059,0.01,0.0,0.0,0.0,0.01,0.0,0.0,0.0,0.01
1648214232.2298439,10106,1648214232,228797664,fufi_imu_link,-0.004214655147668801,-0.010233547662844972,0.004701571576047759,0.9999277005908647,0.0,0.0,0.0,0.0,0.0,0.0,0.0,0.0,0.0,0.014934847131371498,-0.03273367881774902,0.008776901289820671,0.01,0.0,0.0,0.0,0.01,0.0,0.0,0.0,0.01,2.4860830307006836,-0.0029349401593208313,9.769235610961914,0.01,0.0,0.0,0.0,0.01,0.0,0.0,0.0,0.01
1648214232.2407956,10107,1648214232,237332085,fufi_imu_link,-0.004187133858281538,-0.010896529632456667,0.004723712890581404,0.9999207069005769,0.0,0.0,0.0,0.0,0.0,0.0,0.0,0.0,0.0,0.020252935588359833,-0.025055773556232452,0.0052781179547309875,0.01,0.0,0.0,0.0,0.01,0.0,0.0,0.0,0.01,2.2650208473205566,-0.306970477104187,9.10835075378418,0.01,0.0,0.0,0.0,0.01,0.0,0.0,0.0,0.01
1648214232.2856221,10108,1648214232,283993632,fufi_imu_link,-0.0045899027907705964,-0.011218661967338766,0.0046049320861196496,0.9999159309744575,0.0,0.0,0.0,0.0,0.0,0.0,0.0,0.0,0.0,-0.015360712073743343,0.016563894227147102,-0.004735305905342102,0.01,0.0,0.0,0.0,0.01,0.0,0.0,0.0,0.01,3.0298943519592285,-0.27724966406822205,9.640613555908203,0.01,0.0,0.0,0.0,0.01,0.0,0.0,0.0,0.01
1648214232.2858775,10109,1648214232,284858321,fufi_imu_link,-0.004584586145478393,-0.011912825286577918,0.004599902864986775,0.9999079492919332,0.0,0.0,0.0,0.0,0.0,0.0,0.0,0.0,0.0,0.02062849886715412,0.0031092120334506035,-0.00448782742023468,0.01,0.0,0.0,0.0,0.01,0.0,0.0,0.0,0.01,3.0103206634521484,-0.1173723042011261,9.678998947143555,0.01,0.0,0.0,0.0,0.01,0.0,0.0,0.0,0.01
1648214232.3121526,10110,1648214232,311857890,fufi_imu_link,-0.004541029144718847,-0.012711453057426542,0.004514016680139269,0.9998987057041765,0.0,0.0,0.0,0.0,0.0,0.0,0.0,0.0,0.0,0.0025131325237452984,-0.011059120297431946,-0.006214721128344536,0.01,0.0,0.0,0.0,0.01,0.0,0.0,0.0,0.01,2.776881694793701,-0.06805633008480072,9.495933532714844,0.01,0.0,0.0,0.0,0.01,0.0,0.0,0.0,0.01
1648214232.3499656,10111,1648214232,349716383,fufi_imu_link,-0.004389326467066233,-0.012764764605679702,0.004504952778791166,0.9998987448727936,0.0,0.0,0.0,0.0,0.0,0.0,0.0,0.0,0.0,0.006632216740399599,0.01967906951904297,-0.0003549549728631973,0.01,0.0,0.0,0.0,0.01,0.0,0.0,0.0,0.01,1.918915033340454,0.014878138899803162,9.693556785583496,0.01,0.0,0.0,0.0,0.01,0.0,0.0,0.0,0.01
1648214232.3593273,10112,1648214232,358959084,fufi_imu_link,-0.004362327095470923,-0.013089122271713364,0.004514342165041983,0.9998946272959393,0.0,0.0,0.0,0.0,0.0,0.0,0.0,0.0,0.0,0.002886377042159438,0.006866407115012407,0.002405477687716484,0.01,0.0,0.0,0.0,0.01,0.0,0.0,0.0,0.01,1.6532505750656128,-0.03793257847428322,9.744368553161621,0.01,0.0,0.0,0.0,0.01,0.0,0.0,0.0,0.01
1648214232.4253876,10113,1648214232,424720276,fufi_imu_link,-0.004537528879814074,-0.012777587611166093,0.0043949923931652975,0.9998984089038085,0.0,0.0,0.0,0.0,0.0,0.0,0.0,0.0,0.0,-0.005949586164206266,0.011142637580633163,-0.0034882258623838425,0.01,0.0,0.0,0.0,0.01,0.0,0.0,0.0,0.01,0.45986229181289673,-0.01075032353401184,9.815770149230957,0.01,0.0,0.0,0.0,0.01,0.0,0.0,0.0,0.01
1648214232.4432697,10114,1648214232,442521563,fufi_imu_link,-0.004535092027769546,-0.012739796159641258,0.004353090619565956,0.9998990854762138,0.0,0.0,0.0,0.0,0.0,0.0,0.0,0.0,0.0,-0.0003082891053054482,0.0032654181122779846,-0.004687225446105003,0.01,0.0,0.0,0.0,0.01,0.0,0.0,0.0,0.01,0.21139879524707794,-0.07014872133731842,9.653878211975098,0.01,0.0,0.0,0.0,0.01,0.0,0.0,0.0,0.01
1648214232.4806778,10115,1648214232,480162364,fufi_imu_link,-0.004193708170948263,-0.012191437142784648,0.00452056475746521,0.9999066687278589,0.0,0.0,0.0,0.0,0.0,0.0,0.0,0.0,0.0,0.019721955060958862,0.013837391510605812,0.008629275485873222,0.01,0.0,0.0,0.0,0.01,0.0,0.0,0.0,0.01,-0.884508490562439,-0.1830969899892807,9.860800743103027,0.01,0.0,0.0,0.0,0.01,0.0,0.0,0.0,0.01
1648214232.4898415,10116,1648214232,488931942,fufi_imu_link,-0.004245351036192699,-0.011895411392494787,0.0045500513208820885,0.9999098825471024,0.0,0.0,0.0,0.0,0.0,0.0,0.0,0.0,0.0,-0.022130783647298813,0.019830819219350815,0.006998034194111824,0.01,0.0,0.0,0.0,0.01,0.0,0.0,0.0,0.01,-0.5859346985816956,0.10002879053354263,9.830570220947266,0.01,0.0,0.0,0.0,0.01,0.0,0.0,0.0,0.01
1648214232.5005,10117,1648214232,499742388,fufi_imu_link,-0.004272141485104948,-0.01153143834079406,0.004615222293835206,0.9999137335090974,0.0,0.0,0.0,0.0,0.0,0.0,0.0,0.0,0.0,-0.003248340915888548,0.010474732145667076,0.011877870187163353,0.01,0.0,0.0,0.0,0.01,0.0,0.0,0.0,0.01,-0.9323486685752869,-0.10621145367622375,9.354991912841797,0.01,0.0,0.0,0.0,0.01,0.0,0.0,0.0,0.01
1648214232.5179765,10118,1648214232,517290542,fufi_imu_link,-0.0041218464592297,-0.011102373041054348,0.0047089957358025375,0.9999187832288101,0.0,0.0,0.0,0.0,0.0,0.0,0.0,0.0,0.0,0.024128446355462074,0.005821556318551302,0.010179905220866203,0.01,0.0,0.0,0.0,0.01,0.0,0.0,0.0,0.01,-1.2370545864105225,-0.30452996492385864,9.607245445251465,0.01,0.0,0.0,0.0,0.01,0.0,0.0,0.0,0.01
1648214232.5556169,10119,1648214232,555004006,fufi_imu_link,-0.004143771023291337,-0.01073233968367093,0.0046680249337948095,0.9999229248246279,0.0,0.0,0.0,0.0,0.0,0.0,0.0,0.0,0.0,-7.481678039766848e-05,-3.7993304431438446e-05,-0.002266697585582733,0.01,0.0,0.0,0.0,0.01,0.0,0.0,0.0,0.01,-1.1913508176803589,-0.150779128074646,9.374727249145508,0.01,0.0,0.0,0.0,0.01,0.0,0.0,0.0,0.01
1648214232.5931358,10120,1648214232,592120354,fufi_imu_link,-0.004104873025357468,-0.010596990218172266,0.004534933166170744,0.9999251412965572,0.0,0.0,0.0,0.0,0.0,0.0,0.0,0.0,0.0,0.0013060631463304162,-0.006572901736944914,-0.007263893261551857,0.01,0.0,0.0,0.0,0.01,0.0,0.0,0.0,0.01,-0.7990090250968933,-0.027291130274534225,9.786664962768555,0.01,0.0,0.0,0.0,0.01,0.0,0.0,0.0,0.01
1648214232.6200745,10121,1648214232,619451724,fufi_imu_link,-0.004114701046401342,-0.010557494225120732,0.004520415041418518,0.9999255844305809,0.0,0.0,0.0,0.0,0.0,0.0,0.0,0.0,0.0,-0.0012576696462929249,-0.008685260079801083,-0.0011278800666332245,0.01,0.0,0.0,0.0,0.01,0.0,0.0,0.0,0.01,-0.4085531234741211,-0.05243704468011856,9.73678207397461,0.01,0.0,0.0,0.0,0.01,0.0,0.0,0.0,0.01
1648214232.638563,10122,1648214232,637808656,fufi_imu_link,-0.004113442648360429,-0.010443075344130484,0.004504482080554321,0.9999268630295526,0.0,0.0,0.0,0.0,0.0,0.0,0.0,0.0,0.0,-0.0009503791807219386,0.0003131534904241562,-0.0017641745507717133,0.01,0.0,0.0,0.0,0.01,0.0,0.0,0.0,0.01,-0.22824688255786896,-0.04073497653007507,9.67939567565918,0.01,0.0,0.0,0.0,0.01,0.0,0.0,0.0,0.01
1648214232.6762674,10123,1648214232,675680044,fufi_imu_link,-0.004184213148432231,-0.010498983815714812,0.0046343817958104305,0.999925390318966,0.0,0.0,0.0,0.0,0.0,0.0,0.0,0.0,0.0,-0.00419987877830863,-0.0049742283299565315,0.006880795583128929,0.01,0.0,0.0,0.0,0.01,0.0,0.0,0.0,0.01,0.0561571940779686,-0.043850429356098175,9.659425735473633,0.01,0.0,0.0,0.0,0.01,0.0,0.0,0.0,0.01
1648214232.7047734,10124,1648214232,704063177,fufi_imu_link,-0.004034353767240004,-0.010696046706019785,0.004747000791977106,0.9999233893444158,0.0,0.0,0.0,0.0,0.0,0.0,0.0,0.0,0.0,0.012114929035305977,-0.013579897582530975,0.007737418636679649,0.01,0.0,0.0,0.0,0.01,0.0,0.0,0.0,0.01,0.22738125920295715,-0.16279004514217377,9.653960227966309,0.01,0.0,0.0,0.0,0.01,0.0,0.0,0.0,0.01
1648214232.713492,10125,1648214232,712522781,fufi_imu_link,-0.004021507479017132,-0.010777565901697966,0.004769675820485433,0.9999224578653079,0.0,0.0,0.0,0.0,0.0,0.0,0.0,0.0,0.0,0.001362088369205594,-0.006291231606155634,0.00539255328476429,0.01,0.0,0.0,0.0,0.01,0.0,0.0,0.0,0.01,0.3993437886238098,-0.049472060054540634,9.188324928283691,0.01,0.0,0.0,0.0,0.01,0.0,0.0,0.0,0.01
1648214232.7599216,10126,1648214232,759154570,fufi_imu_link,-0.003807258342016891,-0.010812869328072058,0.004675899408684773,0.9999233583657955,0.0,0.0,0.0,0.0,0.0,0.0,0.0,0.0,0.0,0.009693866595625877,0.0036573680117726326,-0.004097741097211838,0.01,0.0,0.0,0.0,0.01,0.0,0.0,0.0,0.01,0.6741752624511719,-0.12417306005954742,9.63701057434082,0.01,0.0,0.0,0.0,0.01,0.0,0.0,0.0,0.01
1648214232.7793257,10127,1648214232,778736761,fufi_imu_link,-0.0038310896166836098,-0.011004690956055566,0.004626975638674267,0.9999214022240698,0.0,0.0,0.0,0.0,0.0,0.0,0.0,0.0,0.0,-0.003008749568834901,-0.0026350023690611124,-0.004903344437479973,0.01,0.0,0.0,0.0,0.01,0.0,0.0,0.0,0.01,0.8379690647125244,-0.057838574051856995,9.503150939941406,0.01,0.0,0.0,0.0,0.01,0.0,0.0,0.0,0.01
1648214232.7880526,10128,1648214232,787307981,fufi_imu_link,-0.0038489504092661126,-0.011171302054488514,0.004616860698591906,0.9999195328567416,0.0,0.0,0.0,0.0,0.0,0.0,0.0,0.0,0.0,-0.0044526890851557255,-0.0032039466314017773,-0.0021818857640028,0.01,0.0,0.0,0.0,0.01,0.0,0.0,0.0,0.01,0.7944730520248413,-0.07312893867492676,9.535918235778809,0.01,0.0,0.0,0.0,0.01,0.0,0.0,0.0,0.01
1648214232.8356967,10129,1648214232,833983244,fufi_imu_link,-0.003839226098901611,-0.01130473565025895,0.004688804667788023,0.9999177358191156,0.0,0.0,0.0,0.0,0.0,0.0,0.0,0.0,0.0,8.319490007124841e-05,0.0012254123575985432,0.003118075430393219,0.01,0.0,0.0,0.0,0.01,0.0,0.0,0.0,0.01,0.8350421190261841,-0.044032011181116104,9.550928115844727,0.01,0.0,0.0,0.0,0.01,0.0,0.0,0.0,0.01
1648214232.835706,10130,1648214232,834843878,fufi_imu_link,-0.0038145181236539103,-0.0114552639008072,0.004689028038525831,0.999916116180003,0.0,0.0,0.0,0.0,0.0,0.0,0.0,0.0,0.0,0.0018293138127774,0.0018227524124085903,0.0025020763278007507,0.01,0.0,0.0,0.0,0.01,0.0,0.0,0.0,0.01,0.8046031594276428,0.014765603467822075,9.653386116027832,0.01,0.0,0.0,0.0,0.01,0.0,0.0,0.0,0.01
1648214232.8625023,10131,1648214232,861937553,fufi_imu_link,-0.0038053762996724957,-0.011510853504153328,0.004714773898394295,0.9999153915556611,0.0,0.0,0.0,0.0,0.0,0.0,0.0,0.0,0.0,0.0004014883888885379,0.0024187760427594185,0.0019340328872203827,0.01,0.0,0.0,0.0,0.01,0.0,0.0,0.0,0.01,0.5641958713531494,-0.060341667383909225,9.680871963500977,0.01,0.0,0.0,0.0,0.01,0.0,0.0,0.0,0.01
1648214232.9000897,10132,1648214232,899806669,fufi_imu_link,-0.0038919754714240124,-0.011512335022389528,0.0047451967516143065,0.9999148972672879,0.0,0.0,0.0,0.0,0.0,0.0,0.0,0.0,0.0,-0.004753128159791231,0.0020682085305452347,0.0016802642494440079,0.01,0.0,0.0,0.0,0.01,0.0,0.0,0.0,0.01,0.375039279460907,-0.06145428121089935,9.598974227905273,0.01,0.0,0.0,0.0,0.01,0.0,0.0,0.0,0.01
1648214232.9093595,10133,1648214232,908982745,fufi_imu_link,-0.0038925588066806723,-0.01154107660807923,0.004750375670723336,0.9999145390820408,0.0,0.0,0.0,0.0,0.0,0.0,0.0,0.0,0.0,0.0008513873908668756,-0.0015172457788139582,0.0011207405477762222,0.01,0.0,0.0,0.0,0.01,0.0,0.0,0.0,0.01,0.3063619136810303,-0.09379971027374268,9.654215812683105,0.01,0.0,0.0,0.0,0.01,0.0,0.0,0.0,0.01
1648214232.9750369,10134,1648214232,974659700,fufi_imu_link,-0.003876411689819032,-0.011480731706470603,0.004858790501834187,0.9999147755617748,0.0,0.0,0.0,0.0,0.0,0.0,0.0,0.0,0.0,0.0011631266679614782,0.0007006525993347168,0.0032794196158647537,0.01,0.0,0.0,0.0,0.01,0.0,0.0,0.0,0.01,0.07999342679977417,-0.15523386001586914,9.68324089050293,0.01,0.0,0.0,0.0,0.01,0.0,0.0,0.0,0.01
1648214232.993399,10135,1648214232,992758767,fufi_imu_link,-0.0039516550418548764,-0.01142002575492425,0.004849998389711326,0.9999152188809843,0.0,0.0,0.0,0.0,0.0,0.0,0.0,0.0,0.0,-0.007171838544309139,0.0037562204524874687,-0.0008996613323688507,0.01,0.0,0.0,0.0,0.01,0.0,0.0,0.0,0.01,0.11526323854923248,-0.11566869914531708,9.596648216247559,0.01,0.0,0.0,0.0,0.01,0.0,0.0,0.0,0.01
1648214233.0307815,10136,1648214233,30213777,fufi_imu_link,-0.0038722974723825214,-0.011345490721989121,0.0047162183007689795,0.9999170177757264,0.0,0.0,0.0,0.0,0.0,0.0,0.0,0.0,0.0,0.00450974702835083,0.000999355223029852,-0.0072073545306921005,0.01,0.0,0.0,0.0,0.01,0.0,0.0,0.0,0.01,0.003610538551583886,-0.09988796710968018,9.650772094726562,0.01,0.0,0.0,0.0,0.01,0.0,0.0,0.0,0.01
1648214233.0396798,10137,1648214233,38996446,fufi_imu_link,-0.0038987748571376038,-0.011272160311486082,0.004686734894513998,0.9999178828646652,0.0,0.0,0.0,0.0,0.0,0.0,0.0,0.0,0.0,-0.005218834616243839,0.0024732621386647224,-0.006712039932608604,0.01,0.0,0.0,0.0,0.01,0.0,0.0,0.0,0.01,-0.023594575002789497,-0.08959196507930756,9.617033004760742,0.01,0.0,0.0,0.0,0.01,0.0,0.0,0.0,0.01
1648214233.0506506,10138,1648214233,49975376,fufi_imu_link,-0.0039119600287454365,-0.011192472596965746,0.004649743711595774,0.9999188992159895,0.0,0.0,0.0,0.0,0.0,0.0,0.0,0.0,0.0,-0.0014591377694159746,0.0017620455473661423,-0.0067778099328279495,0.01,0.0,0.0,0.0,0.01,0.0,0.0,0.0,0.01,-0.05460727587342262,-0.09750805795192719,9.744739532470703,0.01,0.0,0.0,0.0,0.01,0.0,0.0,0.0,0.01
1648214233.0681753,10139,1648214233,67285052,fufi_imu_link,-0.0039093637667682955,-0.0111266146843706,0.004595867645167741,0.999919893452067,0.0,0.0,0.0,0.0,0.0,0.0,0.0,0.0,0.0,0.0004335270496085286,0.00026520760729908943,-0.006260713562369347,0.01,0.0,0.0,0.0,0.01,0.0,0.0,0.0,0.01,-0.030439861118793488,-0.08179296553134918,9.621826171875,0.01,0.0,0.0,0.0,0.01,0.0,0.0,0.0,0.01
1648214233.105882,10140,1648214233,105108200,fufi_imu_link,-0.003898255463252947,-0.011131409525823565,0.004596948704686935,0.9999198784847304,0.0,0.0,0.0,0.0,0.0,0.0,0.0,0.0,0.0,5.010573659092188e-05,-0.002645534463226795,4.266388714313507e-05,0.01,0.0,0.0,0.0,0.01,0.0,0.0,0.0,0.01,0.040825892239809036,-0.03712386637926102,9.618127822875977,0.01,0.0,0.0,0.0,0.01,0.0,0.0,0.0,0.01
1648214233.1140904,10141,1648214233,113018456,fufi_imu_link,-0.0038811483408685405,-0.011095808157920072,0.004598242251263583,0.9999203347752648,0.0,0.0,0.0,0.0,0.0,0.0,0.0,0.0,0.0,0.0022273436188697815,-0.0030002479907125235,0.00026656128466129303,0.01,0.0,0.0,0.0,0.01,0.0,0.0,0.0,0.01,0.03197741508483887,-0.043577611446380615,9.702169418334961,0.01,0.0,0.0,0.0,0.01,0.0,0.0,0.0,0.01
1648214233.1429074,10142,1648214233,142198318,fufi_imu_link,-0.0038797037512887335,-0.011127251191862137,0.004616398689969936,0.9999199073140062,0.0,0.0,0.0,0.0,0.0,0.0,0.0,0.0,0.0,-0.0006377048557624221,-0.004510175436735153,0.0012329760938882828,0.01,0.0,0.0,0.0,0.01,0.0,0.0,0.0,0.01,0.08233188092708588,-0.03420144319534302,9.600966453552246,0.01,0.0,0.0,0.0,0.01,0.0,0.0,0.0,0.01
1648214233.1702077,10143,1648214233,169456314,fufi_imu_link,-0.003876286063091857,-0.011153614020991397,0.004624549389651392,0.999919589188836,0.0,0.0,0.0,0.0,0.0,0.0,0.0,0.0,0.0,0.00029720074962824583,-0.0015262379311025143,0.000589955598115921,0.01,0.0,0.0,0.0,0.01,0.0,0.0,0.0,0.01,0.23708996176719666,-0.07856805622577667,9.673129081726074,0.01,0.0,0.0,0.0,0.01,0.0,0.0,0.0,0.01
1648214233.1886785,10144,1648214233,187783120,fufi_imu_link,-0.003877194174251148,-0.011170220526821576,0.004637397546646822,0.9999193407884017,0.0,0.0,0.0,0.0,0.0,0.0,0.0,0.0,0.0,0.0001388954115100205,-0.0012088483199477196,0.0013958457857370377,0.01,0.0,0.0,0.0,0.01,0.0,0.0,0.0,0.01,0.23714175820350647,-0.0841267853975296,9.667545318603516,0.01,0.0,0.0,0.0,0.01,0.0,0.0,0.0,0.01
1648214233.2552164,10145,1648214233,254110963,fufi_imu_link,-0.0038251573690328182,-0.011153622392000335,0.004802782621037454,0.9999189457939749,0.0,0.0,0.0,0.0,0.0,0.0,0.0,0.0,0.0,0.0017969310283660889,0.0012535443529486656,0.0049732644110918045,0.01,0.0,0.0,0.0,0.01,0.0,0.0,0.0,0.01,0.31232956051826477,-0.09593740850687027,9.587562561035156,0.01,0.0,0.0,0.0,0.01,0.0,0.0,0.0,0.01
1648214233.2632303,10146,1648214233,262572664,fufi_imu_link,-0.003828994255593986,-0.011181087090436321,0.004816022448719653,0.9999185606949399,0.0,0.0,0.0,0.0,0.0,0.0,0.0,0.0,0.0,-0.0010055978782474995,-0.0017904555425047874,0.003153657540678978,0.01,0.0,0.0,0.0,0.01,0.0,0.0,0.0,0.01,0.29196983575820923,-0.07327046990394592,9.646980285644531,0.01,0.0,0.0,0.0,0.01,0.0,0.0,0.0,0.01
1648214233.3099773,10147,1648214233,309235618,fufi_imu_link,-0.003854075431617405,-0.011151402152031701,0.004759028054201518,0.999919068717359,0.0,0.0,0.0,0.0,0.0,0.0,0.0,0.0,0.0,-0.000870308605954051,0.002385346218943596,-0.002422301098704338,0.01,0.0,0.0,0.0,0.01,0.0,0.0,0.0,0.01,0.31114017963409424,-0.09496387839317322,9.57987117767334,0.01,0.0,0.0,0.0,0.01,0.0,0.0,0.0,0.01
1648214233.3295376,10148,1648214233,328830062,fufi_imu_link,-0.0038599937333634103,-0.011141214208212362,0.0047316692714804145,0.9999192892930161,0.0,0.0,0.0,0.0,0.0,0.0,0.0,0.0,0.0,0.00021840781846549362,0.002767421305179596,-0.0027871262282133102,0.01,0.0,0.0,0.0,0.01,0.0,0.0,0.0,0.01,0.2793884575366974,-0.10753520578145981,9.654804229736328,0.01,0.0,0.0,0.0,0.01,0.0,0.0,0.0,0.01
1648214233.3381355,10149,1648214233,337433851,fufi_imu_link,-0.0038632919640866847,-0.011145451501062434,0.004723073049587286,0.9999192699748345,0.0,0.0,0.0,0.0,0.0,0.0,0.0,0.0,0.0,-0.0009189199190586805,0.0005134050734341145,-0.001978885382413864,0.01,0.0,0.0,0.0,0.01,0.0,0.0,0.0,0.01,0.2392416000366211,-0.07347703725099564,9.64436149597168,0.01,0.0,0.0,0.0,0.01,0.0,0.0,0.0,0.01
1648214233.3848457,10150,1648214233,384072714,fufi_imu_link,-0.0038484265856971213,-0.011086483454263886,0.004670185625375038,0.999920231250302,0.0,0.0,0.0,0.0,0.0,0.0,0.0,0.0,0.0,0.0007665401208214462,0.0021525444462895393,-0.0022714491933584213,0.01,0.0,0.0,0.0,0.01,0.0,0.0,0.0,0.01,0.17906317114830017,-0.08786655962467194,9.63082504272461,0.01,0.0,0.0,0.0,0.01,0.0,0.0,0.0,0.01
1648214233.3858125,10151,1648214233,384943217,fufi_imu_link,-0.0038434211297554057,-0.01107563325629211,0.004669827406609036,0.999920372416716,0.0,0.0,0.0,0.0,0.0,0.0,0.0,0.0,0.0,0.00043534155702218413,0.0005709072574973106,-0.0007983054965734482,0.01,0.0,0.0,0.0,0.01,0.0,0.0,0.0,0.01,0.17264646291732788,-0.05645562708377838,9.641397476196289,0.01,0.0,0.0,0.0,0.01,0.0,0.0,0.0,0.01
1648214233.4128506,10152,1648214233,412164341,fufi_imu_link,-0.003873134709010514,-0.011072182286407129,0.004636458074790718,0.9999204512677312,0.0,0.0,0.0,0.0,0.0,0.0,0.0,0.0,0.0,-0.0028028071392327547,-0.0002684961073100567,-0.002417502924799919,0.01,0.0,0.0,0.0,0.01,0.0,0.0,0.0,0.01,0.18403376638889313,-0.04445062577724457,9.596660614013672,0.01,0.0,0.0,0.0,0.01,0.0,0.0,0.0,0.01
1648214233.439892,10153,1648214233,439493578,fufi_imu_link,-0.0038641734356719094,-0.011070240920109931,0.004619320435601753,0.9999205867509394,0.0,0.0,0.0,0.0,0.0,0.0,0.0,0.0,0.0,2.3277534637600183e-05,-0.0006993990391492844,-0.0012537389993667603,0.01,0.0,0.0,0.0,0.01,0.0,0.0,0.0,0.01,0.16911715269088745,-0.04307784140110016,9.652652740478516,0.01,0.0,0.0,0.0,0.01,0.0,0.0,0.0,0.01
1648214233.45909,10154,1648214233,458726616,fufi_imu_link,-0.0038722871250740443,-0.01105197137964106,0.004625915683784334,0.999920726970459,0.0,0.0,0.0,0.0,0.0,0.0,0.0,0.0,0.0,-0.0008324243244715035,0.0009012632071971893,0.0006946604698896408,0.01,0.0,0.0,0.0,0.01,0.0,0.0,0.0,0.01,0.175753653049469,-0.0754154846072197,9.633502960205078,0.01,0.0,0.0,0.0,0.01,0.0,0.0,0.0,0.01
1648214233.45934,10155,1648214233,459095125,fufi_imu_link,-0.003869475057582353,-0.011039723917490241,0.004626059053653926,0.9999208724875367,0.0,0.0,0.0,0.0,0.0,0.0,0.0,0.0,0.0,9.139743633568287e-05,0.0002564210444688797,0.0006858576089143753,0.01,0.0,0.0,0.0,0.01,0.0,0.0,0.0,0.01,0.16578108072280884,-0.06465615332126617,9.641095161437988,0.01,0.0,0.0,0.0,0.01,0.0,0.0,0.0,0.01
1648214233.5250018,10156,1648214233,524707809,fufi_imu_link,-0.003817019767259474,-0.011069361417828097,0.004673728478333329,0.9999205247718485,0.0,0.0,0.0,0.0,0.0,0.0,0.0,0.0,0.0,0.001656032050959766,-0.000773030798882246,0.0014319568872451782,0.01,0.0,0.0,0.0,0.01,0.0,0.0,0.0,0.01,0.23175181448459625,-0.08052152395248413,9.663838386535645,0.01,0.0,0.0,0.0,0.01,0.0,0.0,0.0,0.01
1648214233.5341547,10157,1648214233,533935600,fufi_imu_link,-0.0038163766462409716,-0.011077058511774809,0.004682279152361703,0.9999204019850582,0.0,0.0,0.0,0.0,0.0,0.0,0.0,0.0,0.0,0.00017719763854984194,-0.0008604587055742741,0.0018510650843381882,0.01,0.0,0.0,0.0,0.01,0.0,0.0,0.0,0.01,0.22628988325595856,-0.07457280904054642,9.579866409301758,0.01,0.0,0.0,0.0,0.01,0.0,0.0,0.0,0.01
1648214233.5812147,10158,1648214233,580477707,fufi_imu_link,-0.0038529081482383916,-0.011062787141069983,0.004696297368930018,0.9999203541435164,0.0,0.0,0.0,0.0,0.0,0.0,0.0,0.0,0.0,-0.0014436582569032907,0.0007905806414783001,0.000620843842625618,0.01,0.0,0.0,0.0,0.01,0.0,0.0,0.0,0.01,0.22848626971244812,-0.08574941754341125,9.644533157348633,0.01,0.0,0.0,0.0,0.01,0.0,0.0,0.0,0.01
1648214233.600542,10159,1648214233,599925832,fufi_imu_link,-0.0038755090542986954,-0.01105517200613087,0.0047047916848353966,0.9999203110931828,0.0,0.0,0.0,0.0,0.0,0.0,0.0,0.0,0.0,-0.0019565506372600794,0.0008479966782033443,0.0008948445320129395,0.01,0.0,0.0,0.0,0.01,0.0,0.0,0.0,0.01,0.21482819318771362,-0.0888964831829071,9.633302688598633,0.01,0.0,0.0,0.0,0.01,0.0,0.0,0.0,0.01
1648214233.6183124,10160,1648214233,617359504,fufi_imu_link,-0.003870380041608803,-0.011068624751465797,0.004707402262963627,0.9999201698477632,0.0,0.0,0.0,0.0,0.0,0.0,0.0,0.0,0.0,0.00020396968466229737,-0.0009710332378745079,0.00029998086392879486,0.01,0.0,0.0,0.0,0.01,0.0,0.0,0.0,0.01,0.23176005482673645,-0.06274464726448059,9.614401817321777,0.01,0.0,0.0,0.0,0.01,0.0,0.0,0.0,0.01
1648214233.655737,10161,1648214233,655079917,fufi_imu_link,-0.0038750001162391238,-0.011071212948072697,0.004712659535770695,0.9999200985369069,0.0,0.0,0.0,0.0,0.0,0.0,0.0,0.0,0.0,4.772606189362705e-05,-0.00021232431754469872,0.0002739187330007553,0.01,0.0,0.0,0.0,0.01,0.0,0.0,0.0,0.01,0.20707467198371887,-0.09645269811153412,9.610868453979492,0.01,0.0,0.0,0.0,0.01,0.0,0.0,0.0,0.01
1648214233.6638238,10162,1648214233,663091857,fufi_imu_link,-0.0038661080022433206,-0.011077717231430056,0.004711799337861111,0.9999200649736234,0.0,0.0,0.0,0.0,0.0,0.0,0.0,0.0,0.0,0.0011129563208669424,-0.0016199962701648474,-0.00022118352353572845,0.01,0.0,0.0,0.0,0.01,0.0,0.0,0.0,0.01,0.21322911977767944,-0.05863047391176224,9.629011154174805,0.01,0.0,0.0,0.0,0.01,0.0,0.0,0.0,0.01
1648214233.6931381,10163,1648214233,692202836,fufi_imu_link,-0.0038873789608627834,-0.011073715759245945,0.0046961058283926166,0.9999201006551207,0.0,0.0,0.0,0.0,0.0,0.0,0.0,0.0,0.0,-0.001656346139498055,0.0002453997731208801,-0.0010570976883172989,0.01,0.0,0.0,0.0,0.01,0.0,0.0,0.0,0.01,0.21083040535449982,-0.06563074886798859,9.63572883605957,0.01,0.0,0.0,0.0,0.01,0.0,0.0,0.0,0.01
1648214233.7199404,10164,1648214233,719379501,fufi_imu_link,-0.003880353463482033,-0.011083162223283892,0.0046929713178810485,0.9999200379992094,0.0,0.0,0.0,0.0,0.0,0.0,0.0,0.0,0.0,0.0002507682074792683,-0.0011954433284699917,-0.00023723021149635315,0.01,0.0,0.0,0.0,0.01,0.0,0.0,0.0,0.01,0.18715453147888184,-0.06218136101961136,9.629405975341797,0.01,0.0,0.0,0.0,0.01,0.0,0.0,0.0,0.01
1648214233.738449,10165,1648214233,737825325,fufi_imu_link,-0.0038913733542938977,-0.011096754478436995,0.004691684829745643,0.9999198504614863,0.0,0.0,0.0,0.0,0.0,0.0,0.0,0.0,0.0,-0.0014382702065631747,-0.0012746411375701427,-0.0001251325011253357,0.01,0.0,0.0,0.0,0.01,0.0,0.0,0.0,0.01,0.21969887614250183,-0.0674874410033226,9.606239318847656,0.01,0.0,0.0,0.0,0.01,0.0,0.0,0.0,0.01
1648214233.8047652,10166,1648214233,804129767,fufi_imu_link,-0.0039117990954176665,-0.011122327877407523,0.0046832791612723265,0.9999195260353316,0.0,0.0,0.0,0.0,0.0,0.0,0.0,0.0,0.0,-0.0007911704014986753,-0.0008169719949364662,-0.0002462957054376602,0.01,0.0,0.0,0.0,0.01,0.0,0.0,0.0,0.01,0.2075117826461792,-0.05489213764667511,9.624804496765137,0.01,0.0,0.0,0.0,0.01,0.0,0.0,0.0,0.01
1648214233.8133204,10167,1648214233,812754743,fufi_imu_link,-0.0039053522432916355,-0.011131595076845597,0.004684698018613044,0.999919441464849,0.0,0.0,0.0,0.0,0.0,0.0,0.0,0.0,0.0,0.00102985801640898,-0.0006930124945938587,0.0003258325159549713,0.01,0.0,0.0,0.0,0.01,0.0,0.0,0.0,0.01,0.23780608177185059,-0.06851156800985336,9.609992980957031,0.01,0.0,0.0,0.0,0.01,0.0,0.0,0.0,0.01
1648214233.851524,10168,1648214233,850779283,fufi_imu_link,-0.0039065300756507765,-0.01112966503835595,0.004691161888427614,0.9999194280435993,0.0,0.0,0.0,0.0,0.0,0.0,0.0,0.0,0.0,-0.00011247751535847783,0.00040238117799162865,0.00034465454518795013,0.01,0.0,0.0,0.0,0.01,0.0,0.0,0.0,0.01,0.23651427030563354,-0.07240470498800278,9.648506164550781,0.01,0.0,0.0,0.0,0.01,0.0,0.0,0.0,0.01
1648214233.8797932,10169,1648214233,878828134,fufi_imu_link,-0.0039058246694894526,-0.011143515834316782,0.00470385044033333,0.9999192169268158,0.0,0.0,0.0,0.0,0.0,0.0,0.0,0.0,0.0,-0.00035305472556501627,-0.0008457433432340622,0.0009105708450078964,0.01,0.0,0.0,0.0,0.01,0.0,0.0,0.0,0.01,0.2215576022863388,-0.054123930633068085,9.60428237915039,0.01,0.0,0.0,0.0,0.01,0.0,0.0,0.0,0.01
1648214233.887964,10170,1648214233,887396055,fufi_imu_link,-0.003911758861285354,-0.01114408769406608,0.00470607607531979,0.9999191768838377,0.0,0.0,0.0,0.0,0.0,0.0,0.0,0.0,0.0,-0.0009148417739197612,-4.1190069168806076e-05,0.0005247890949249268,0.01,0.0,0.0,0.0,0.01,0.0,0.0,0.0,0.01,0.21579009294509888,-0.08401621133089066,9.631023406982422,0.01,0.0,0.0,0.0,0.01,0.0,0.0,0.0,0.01
1648214233.9065013,10171,1648214233,905953801,fufi_imu_link,-0.003918729963141771,-0.011143536423493845,0.004707925363439172,0.9999191470265116,0.0,0.0,0.0,0.0,0.0,0.0,0.0,0.0,0.0,-0.0007540163351222873,0.000575583428144455,0.00021209754049777985,0.01,0.0,0.0,0.0,0.01,0.0,0.0,0.0,0.01,0.23244714736938477,-0.07626809924840927,9.624377250671387,0.01,0.0,0.0,0.0,0.01,0.0,0.0,0.0,0.01
1648214233.9348052,10172,1648214233,934099464,fufi_imu_link,-0.0039112923997471375,-0.011152948665511015,0.004707403855320336,0.9999190736638497,0.0,0.0,0.0,0.0,0.0,0.0,0.0,0.0,0.0,0.0006128457025624812,-0.00039895810186862946,-4.5338645577430725e-05,0.01,0.0,0.0,0.0,0.01,0.0,0.0,0.0,0.01,0.22905561327934265,-0.08105959743261337,9.624565124511719,0.01,0.0,0.0,0.0,0.01,0.0,0.0,0.0,0.01
1648214233.9355178,10173,1648214233,934996390,fufi_imu_link,-0.003905927512507564,-0.011155261545196004,0.004707210515248644,0.999919069744792,0.0,0.0,0.0,0.0,0.0,0.0,0.0,0.0,0.0,0.0004176495422143489,0.0009135603904724121,-0.0002795904874801636,0.01,0.0,0.0,0.0,0.01,0.0,0.0,0.0,0.01,0.2250702828168869,-0.05645013973116875,9.629881858825684,0.01,0.0,0.0,0.0,0.01,0.0,0.0,0.0,0.01
1648214233.95453,10174,1648214233,953932872,fufi_imu_link,-0.003898922004051991,-0.011162123469083966,0.004707068891342253,0.9999190211758747,0.0,0.0,0.0,0.0,0.0,0.0,0.0,0.0,0.0,0.0005064787692390382,-0.00019940268248319626,-1.6713514924049377e-05,0.01,0.0,0.0,0.0,0.01,0.0,0.0,0.0,0.01,0.2338392436504364,-0.06776836514472961,9.628686904907227,0.01,0.0,0.0,0.0,0.01,0.0,0.0,0.0,0.01
1648214233.9629586,10175,1648214233,962219236,fufi_imu_link,-0.003908936937309183,-0.011167052607125324,0.004706157365099922,0.9999189313294077,0.0,0.0,0.0,0.0,0.0,0.0,0.0,0.0,0.0,-0.0017692835535854101,-0.0006462885066866875,-0.00020796246826648712,0.01,0.0,0.0,0.0,0.01,0.0,0.0,0.0,0.01,0.22379107773303986,-0.0869612991809845,9.655155181884766,0.01,0.0,0.0,0.0,0.01,0.0,0.0,0.0,0.01
1648214234.009715,10176,1648214234,8836654,fufi_imu_link,-0.003909585071846987,-0.011176441853187386,0.00470536251326876,0.999918827633367,0.0,0.0,0.0,0.0,0.0,0.0,0.0,0.0,0.0,-4.432894638739526e-05,-0.00039144838228821754,-3.493577241897583e-05,0.01,0.0,0.0,0.0,0.01,0.0,0.0,0.0,0.01,0.21573269367218018,-0.07498224079608917,9.620698928833008,0.01,0.0,0.0,0.0,0.01,0.0,0.0,0.0,0.01
1648214234.0105715,10177,1648214234,9836616,fufi_imu_link,-0.0039052647537805496,-0.011176418377891413,0.004705724896055723,0.9999188430731005,0.0,0.0,0.0,0.0,0.0,0.0,0.0,0.0,0.0,-0.001031229505315423,-4.2961910367012024e-05,0.0008438881486654282,0.01,0.0,0.0,0.0,0.01,0.0,0.0,0.0,0.01,0.21440105140209198,-0.057561423629522324,9.609563827514648,0.01,0.0,0.0,0.0,0.01,0.0,0.0,0.0,0.01
1648214234.075815,10178,1648214234,75107850,fufi_imu_link,-0.003867854452496915,-0.011143859677595847,0.004708659127396246,0.9999193380581468,0.0,0.0,0.0,0.0,0.0,0.0,0.0,0.0,0.0,0.0012860711431130767,0.0011373390443623066,7.907114923000336e-05,0.01,0.0,0.0,0.0,0.01,0.0,0.0,0.0,0.01,0.2319287210702896,-0.09207232296466827,9.605731010437012,0.01,0.0,0.0,0.0,0.01,0.0,0.0,0.0,0.01
1648214234.0852785,10179,1648214234,84527360,fufi_imu_link,-0.0038738324197210953,-0.011149296975916968,0.004705161562429048,0.9999192707683947,0.0,0.0,0.0,0.0,0.0,0.0,0.0,0.0,0.0,-0.0014054242055863142,-0.00048206327483057976,-0.0007248800247907639,0.01,0.0,0.0,0.0,0.01,0.0,0.0,0.0,0.01,0.22669938206672668,-0.073515884578228,9.642173767089844,0.01,0.0,0.0,0.0,0.01,0.0,0.0,0.0,0.01
1648214234.1302361,10180,1648214234,129906175,fufi_imu_link,-0.003864929899988106,-0.011138351257975713,0.004713425100226491,0.9999193882868493,0.0,0.0,0.0,0.0,0.0,0.0,0.0,0.0,0.0,0.00025529443519189954,0.0001978762447834015,0.00036262720823287964,0.01,0.0,0.0,0.0,0.01,0.0,0.0,0.0,0.01,0.1897941678762436,-0.06300635635852814,9.632676124572754,0.01,0.0,0.0,0.0,0.01,0.0,0.0,0.0,0.01
1648214234.149835,10181,1648214234,149529634,fufi_imu_link,-0.0038766797965875902,-0.011133362765739565,0.0047136628731482425,0.999919397236397,0.0,0.0,0.0,0.0,0.0,0.0,0.0,0.0,0.0,-0.0005132618825882673,0.000589197501540184,2.4965032935142517e-05,0.01,0.0,0.0,0.0,0.01,0.0,0.0,0.0,0.01,0.21713681519031525,-0.10142127424478531,9.638266563415527,0.01,0.0,0.0,0.0,0.01,0.0,0.0,0.0,0.01
1648214234.1676447,10182,1648214234,167311370,fufi_imu_link,-0.0038771489749910956,-0.0111362999962527,0.004709095435912898,0.999919384229746,0.0,0.0,0.0,0.0,0.0,0.0,0.0,0.0,0.0,-8.636675192974508e-05,-0.00048318831250071526,-0.0005150008946657181,0.01,0.0,0.0,0.0,0.01,0.0,0.0,0.0,0.01,0.20902025699615479,-0.07484884560108185,9.636073112487793,0.01,0.0,0.0,0.0,0.01,0.0,0.0,0.0,0.01
1648214234.2055256,10183,1648214234,205039930,fufi_imu_link,-0.003845962495999949,-0.011116886638672677,0.004716683126683124,0.9999196849268569,0.0,0.0,0.0,0.0,0.0,0.0,0.0,0.0,0.0,0.0016480068443343043,0.0008909711614251137,0.00038700923323631287,0.01,0.0,0.0,0.0,0.01,0.0,0.0,0.0,0.01,0.20428389310836792,-0.07398149371147156,9.62075424194336,0.01,0.0,0.0,0.0,0.01,0.0,0.0,0.0,0.01
1648214234.2139912,10184,1648214234,213096966,fufi_imu_link,-0.0038427553020227295,-0.01112609556602474,0.004717020400621854,0.9999195932412189,0.0,0.0,0.0,0.0,0.0,0.0,0.0,0.0,0.0,0.0006065180641599,-0.0009134695865213871,8.090026676654816e-05,0.01,0.0,0.0,0.0,0.01,0.0,0.0,0.0,0.01,0.23470984399318695,-0.07209654897451401,9.607904434204102,0.01,0.0,0.0,0.0,0.01,0.0,0.0,0.0,0.01
1648214234.2430317,10185,1648214234,242317588,fufi_imu_link,-0.003826880792010729,-0.01114238992753506,0.004707169029755853,0.9999195191063287,0.0,0.0,0.0,0.0,0.0,0.0,0.0,0.0,0.0,0.0009178033797070384,-0.0010044267401099205,-0.0006862245500087738,0.01,0.0,0.0,0.0,0.01,0.0,0.0,0.0,0.01,0.22123104333877563,-0.06617267429828644,9.655451774597168,0.01,0.0,0.0,0.0,0.01,0.0,0.0,0.0,0.01
1648214234.2702372,10186,1648214234,269517974,fufi_imu_link,-0.003815927304771716,-0.01112837086334679,0.004702937522204392,0.9999197369986227,0.0,0.0,0.0,0.0,0.0,0.0,0.0,0.0,0.0,0.0006672147428616881,0.0009976737201213837,-0.00031334906816482544,0.01,0.0,0.0,0.0,0.01,0.0,0.0,0.0,0.01,0.21276170015335083,-0.06734327971935272,9.644954681396484,0.01,0.0,0.0,0.0,0.01,0.0,0.0,0.0,0.01
1648214234.288497,10187,1648214234,287824594,fufi_imu_link,-0.003822365474239781,-0.01111439502884057,0.004703604083488494,0.9999198647161431,0.0,0.0,0.0,0.0,0.0,0.0,0.0,0.0,0.0,-0.0010590695310384035,0.0013642008416354656,9.32011753320694e-05,0.01,0.0,0.0,0.0,0.01,0.0,0.0,0.0,0.01,0.20801258087158203,-0.06189170479774475,9.633275032043457,0.01,0.0,0.0,0.0,0.01,0.0,0.0,0.0,0.01
1648214234.317805,10188,1648214234,317074495,fufi_imu_link,-0.0038118590431403658,-0.011091206347386962,0.00470092413962413,0.9999201749062915,0.0,0.0,0.0,0.0,0.0,0.0,0.0,0.0,0.0,0.0013563870452344418,0.0020795739255845547,-0.00019543617963790894,0.01,0.0,0.0,0.0,0.01,0.0,0.0,0.0,0.01,0.2407265156507492,-0.10971434414386749,9.612415313720703,0.01,0.0,0.0,0.0,0.01,0.0,0.0,0.0,0.01
1648214234.354893,10189,1648214234,354133452,fufi_imu_link,-0.0037872132731744464,-0.011113726550734919,0.0046885421686142644,0.9999200766411845,0.0,0.0,0.0,0.0,0.0,0.0,0.0,0.0,0.0,0.001435617683455348,-0.0010577747598290443,-0.0006889291107654572,0.01,0.0,0.0,0.0,0.01,0.0,0.0,0.0,0.01,0.224881112575531,-0.08228033035993576,9.615945816040039,0.01,0.0,0.0,0.0,0.01,0.0,0.0,0.0,0.01
1648214234.3633373,10190,1648214234,362612821,fufi_imu_link,-0.0037895660059812956,-0.011111446441701988,0.004681648379917735,0.9999201253679748,0.0,0.0,0.0,0.0,0.0,0.0,0.0,0.0,0.0,-0.00016155632329173386,0.0016226493753492832,-0.0016185417771339417,0.01,0.0,0.0,0.0,0.01,0.0,0.0,0.0,0.01,0.23062269389629364,-0.08044882118701935,9.60588264465332,0.01,0.0,0.0,0.0,0.01,0.0,0.0,0.0,0.01
1648214234.4013805,10191,1648214234,400856300,fufi_imu_link,-0.0037952846041010685,-0.011116150851142115,0.004698605138113876,0.9999199718551405,0.0,0.0,0.0,0.0,0.0,0.0,0.0,0.0,0.0,-0.00033117918064817786,-0.0002988823689520359,0.0008896514773368835,0.01,0.0,0.0,0.0,0.01,0.0,0.0,0.0,0.01,0.20995503664016724,-0.07108666002750397,9.624804496765137,0.01,0.0,0.0,0.0,0.01,0.0,0.0,0.0,0.01
1648214234.429087,10192,1648214234,428777938,fufi_imu_link,-0.003800788638766587,-0.011105338739468132,0.004710999051820631,0.9999200127735913,0.0,0.0,0.0,0.0,0.0,0.0,0.0,0.0,0.0,-0.00048481475096195936,0.0007737823761999607,0.0008973181247711182,0.01,0.0,0.0,0.0,0.01,0.0,0.0,0.0,0.01,0.213743656873703,-0.06868711113929749,9.63502311706543,0.01,0.0,0.0,0.0,0.01,0.0,0.0,0.0,0.01
1648214234.437455,10193,1648214234,437087422,fufi_imu_link,-0.0038023974180975673,-0.011104578344937732,0.004710489256714989,0.9999200175037094,0.0,0.0,0.0,0.0,0.0,0.0,0.0,0.0,0.0,-0.00012722882092930377,-0.00017907842993736267,-0.0001262873411178589,0.01,0.0,0.0,0.0,0.01,0.0,0.0,0.0,0.01,0.20740725100040436,-0.0782707929611206,9.6134033203125,0.01,0.0,0.0,0.0,0.01,0.0,0.0,0.0,0.01
1648214234.4865928,10194,1648214234,484883515,fufi_imu_link,-0.0038029042054705422,-0.011142443464963655,0.0047320676924711485,0.9999194924635623,0.0,0.0,0.0,0.0,0.0,0.0,0.0,0.0,0.0,0.00019816328131128103,-0.0014798527117818594,0.0008931942284107208,0.01,0.0,0.0,0.0,0.01,0.0,0.0,0.0,0.01,0.2233160436153412,-0.09378058463335037,9.59200668334961,0.01,0.0,0.0,0.0,0.01,0.0,0.0,0.0,0.01
1648214234.4866302,10195,1648214234,485662657,fufi_imu_link,-0.0038049478053207362,-0.011145320319598542,0.004732272208107304,0.9999194516594428,0.0,0.0,0.0,0.0,0.0,0.0,0.0,0.0,0.0,-0.0017616814002394676,0.0014906041324138641,0.0005459077656269073,0.01,0.0,0.0,0.0,0.01,0.0,0.0,0.0,0.01,0.2271430343389511,-0.07940950244665146,9.611479759216309,0.01,0.0,0.0,0.0,0.01,0.0,0.0,0.0,0.01
1648214234.5045598,10196,1648214234,503816667,fufi_imu_link,-0.003794143896984953,-0.011149152107477005,0.004729033483348064,0.999919465317926,0.0,0.0,0.0,0.0,0.0,0.0,0.0,0.0,0.0,0.0012867196928709745,-0.00031863851472735405,-0.00037310831248760223,0.01,0.0,0.0,0.0,0.01,0.0,0.0,0.0,0.01,0.21776056289672852,-0.07752544432878494,9.611519813537598,0.01,0.0,0.0,0.0,0.01,0.0,0.0,0.0,0.01
1648214234.5129707,10197,1648214234,512408529,fufi_imu_link,-0.003803260716627821,-0.011151659003553515,0.004725932905837625,0.9999194173870011,0.0,0.0,0.0,0.0,0.0,0.0,0.0,0.0,0.0,-0.0015898753190413117,-0.0004469226114451885,-0.0007113274186849594,0.01,0.0,0.0,0.0,0.01,0.0,0.0,0.0,0.01,0.21746331453323364,-0.08358932286500931,9.67201042175293,0.01,0.0,0.0,0.0,0.01,0.0,0.0,0.0,0.01
1648214234.5595837,10198,1648214234,558944638,fufi_imu_link,-0.003785709503541855,-0.011155279578672427,0.004720846828751513,0.9999194676304167,0.0,0.0,0.0,0.0,0.0,0.0,0.0,0.0,0.0,0.0005079135298728943,0.0001172143965959549,-0.00022004544734954834,0.01,0.0,0.0,0.0,0.01,0.0,0.0,0.0,0.01,0.23887258768081665,-0.05218585580587387,9.619481086730957,0.01,0.0,0.0,0.0,0.01,0.0,0.0,0.0,0.01
1648214234.5608213,10199,1648214234,560074957,fufi_imu_link,-0.0037840323996273088,-0.01116239202775638,0.004721267395443456,0.9999193926198242,0.0,0.0,0.0,0.0,0.0,0.0,0.0,0.0,0.0,-0.0011154909152537584,0.0015852423384785652,0.0008627269417047501,0.01,0.0,0.0,0.0,0.01,0.0,0.0,0.0,0.01,0.24592024087905884,-0.06530128419399261,9.648979187011719,0.01,0.0,0.0,0.0,0.01,0.0,0.0,0.0,0.01
1648214234.6255927,10200,1648214234,625057737,fufi_imu_link,-0.003732018558150852,-0.01113941115684712,0.0049853482977568935,0.9999185626134313,0.0,0.0,0.0,0.0,0.0,0.0,0.0,0.0,0.0,0.0018568860832601786,0.0006448267959058285,0.008108198642730713,0.01,0.0,0.0,0.0,0.01,0.0,0.0,0.0,0.01,0.21065093576908112,-0.09290473163127899,9.602397918701172,0.01,0.0,0.0,0.0,0.01,0.0,0.0,0.0,0.01
1648214234.63512,10201,1648214234,634528060,fufi_imu_link,-0.0037358755488763103,-0.01111422430063945,0.005012323392877526,0.9999186936277789,0.0,0.0,0.0,0.0,0.0,0.0,0.0,0.0,0.0,0.005910948850214481,-0.0014391117729246616,0.005526544526219368,0.01,0.0,0.0,0.0,0.01,0.0,0.0,0.0,0.01,0.09099449962377548,-0.19278497993946075,9.593547821044922,0.01,0.0,0.0,0.0,0.01,0.0,0.0,0.0,0.01
1648214234.6711261,10202,1648214234,670488493,fufi_imu_link,-0.00366372678237408,-0.011140880143126097,0.005011723773608215,0.9999186669527266,0.0,0.0,0.0,0.0,0.0,0.0,0.0,0.0,0.0,0.002541152061894536,-0.001190672628581524,-4.861317574977875e-05,0.01,0.0,0.0,0.0,0.01,0.0,0.0,0.0,0.01,0.23548434674739838,0.029217932373285294,9.618938446044922,0.01,0.0,0.0,0.0,0.01,0.0,0.0,0.0,0.01
1648214234.7007477,10203,1648214234,699854573,fufi_imu_link,-0.00371915177793453,-0.011157090903718676,0.004987557617088757,0.9999184024217351,0.0,0.0,0.0,0.0,0.0,0.0,0.0,0.0,0.0,-0.004384511150419712,-0.0009676194749772549,-0.0015937350690364838,0.01,0.0,0.0,0.0,0.01,0.0,0.0,0.0,0.01,0.21805933117866516,-0.03921179100871086,9.50820255279541,0.01,0.0,0.0,0.0,0.01,0.0,0.0,0.0,0.01
1648214234.7180328,10204,1648214234,717433232,fufi_imu_link,-0.0036820456439029237,-0.011169406865568957,0.005000703896396997,0.9999183365908879,0.0,0.0,0.0,0.0,0.0,0.0,0.0,0.0,0.0,0.0021649878472089767,-0.0006876783445477486,0.0014949329197406769,0.01,0.0,0.0,0.0,0.01,0.0,0.0,0.0,0.01,0.24166971445083618,-0.0023850216530263424,9.706745147705078,0.01,0.0,0.0,0.0,0.01,0.0,0.0,0.0,0.01
1648214234.7561195,10205,1648214234,755211935,fufi_imu_link,-0.0038143369985935024,-0.011167076178585682,0.005091488023688956,0.999917408585623,0.0,0.0,0.0,0.0,0.0,0.0,0.0,0.0,0.0,-0.00426880456507206,0.00018894579261541367,0.004825232550501823,0.01,0.0,0.0,0.0,0.01,0.0,0.0,0.0,0.01,0.219718798995018,-0.2705613374710083,9.694183349609375,0.01,0.0,0.0,0.0,0.01,0.0,0.0,0.0,0.01
1648214234.7645085,10206,1648214234,763843770,fufi_imu_link,-0.0038560275128936596,-0.011168150575754194,0.005114615307211908,0.9999171186527394,0.0,0.0,0.0,0.0,0.0,0.0,0.0,0.0,0.0,0.0019406233914196491,0.0015253606252372265,0.005221644416451454,0.01,0.0,0.0,0.0,0.01,0.0,0.0,0.0,0.01,0.2443697452545166,-0.26723822951316833,9.657649040222168,0.01,0.0,0.0,0.0,0.01,0.0,0.0,0.0,0.01
1648214234.7753334,10207,1648214234,774743810,fufi_imu_link,-0.003939251730833086,-0.011172728326147807,0.005148756785636206,0.9999165678900983,0.0,0.0,0.0,0.0,0.0,0.0,0.0,0.0,0.0,-0.006298884749412537,0.0012152721174061298,0.00624898262321949,0.01,0.0,0.0,0.0,0.01,0.0,0.0,0.0,0.01,0.2565259039402008,-0.26300913095474243,9.62353515625,0.01,0.0,0.0,0.0,0.01,0.0,0.0,0.0,0.01
1648214234.792687,10208,1648214234,792324032,fufi_imu_link,-0.004021638160429782,-0.011144145683356425,0.00520062058941323,0.999916290490849,0.0,0.0,0.0,0.0,0.0,0.0,0.0,0.0,0.0,-0.002287124050781131,0.0017199404537677765,0.0058488622307777405,0.01,0.0,0.0,0.0,0.01,0.0,0.0,0.0,0.01,0.16115330159664154,-0.31345707178115845,9.592032432556152,0.01,0.0,0.0,0.0,0.01,0.0,0.0,0.0,0.01
1648214234.8297222,10209,1648214234,829486587,fufi_imu_link,-0.004181531899599847,-0.011098533760635496,0.0053782904069703055,0.9999152020704731,0.0,0.0,0.0,0.0,0.0,0.0,0.0,0.0,0.0,-0.003794832155108452,0.0013708574697375298,0.009553827345371246,0.01,0.0,0.0,0.0,0.01,0.0,0.0,0.0,0.01,0.13581879436969757,-0.4166620969772339,9.642643928527832,0.01,0.0,0.0,0.0,0.01,0.0,0.0,0.0,0.01
1648214234.8379257,10210,1648214234,837571273,fufi_imu_link,-0.004294921108320388,-0.011077004024139723,0.005419634285248715,0.9999147369644757,0.0,0.0,0.0,0.0,0.0,0.0,0.0,0.0,0.0,-0.003099518595263362,0.0004382026381790638,0.00996902585029602,0.01,0.0,0.0,0.0,0.01,0.0,0.0,0.0,0.01,0.1359955221414566,-0.4706737995147705,9.66952896118164,0.01,0.0,0.0,0.0,0.01,0.0,0.0,0.0,0.01
1648214234.8673394,10211,1648214234,866988805,fufi_imu_link,-0.004475054458207814,-0.011093620246145058,0.005602977134004996,0.9999127522562488,0.0,0.0,0.0,0.0,0.0,0.0,0.0,0.0,0.0,-0.0028033065609633923,-0.002297726459801197,0.012378832325339317,0.01,0.0,0.0,0.0,0.01,0.0,0.0,0.0,0.01,0.14691297709941864,-0.6151095628738403,9.657293319702148,0.01,0.0,0.0,0.0,0.01,0.0,0.0,0.0,0.01
1648214234.9047723,10212,1648214234,904149522,fufi_imu_link,-0.004810404021182073,-0.011136389538991459,0.005748581447851006,0.9999098932666515,0.0,0.0,0.0,0.0,0.0,0.0,0.0,0.0,0.0,-0.005431655328720808,-0.002378009259700775,0.007747037336230278,0.01,0.0,0.0,0.0,0.01,0.0,0.0,0.0,0.01,0.20466816425323486,-0.9954844117164612,9.67086410522461,0.01,0.0,0.0,0.0,0.01,0.0,0.0,0.0,0.01
1648214234.913287,10213,1648214234,912605537,fufi_imu_link,-0.005105112227774784,-0.011155198142968064,0.005771573553369877,0.9999080899373958,0.0,0.0,0.0,0.0,0.0,0.0,0.0,0.0,0.0,-0.006403021980077028,-0.0006420658901333809,0.004822501912713051,0.01,0.0,0.0,0.0,0.01,0.0,0.0,0.0,0.01,0.2721841633319855,-1.1387664079666138,9.69595718383789,0.01,0.0,0.0,0.0,0.01,0.0,0.0,0.0,0.01
1648214234.951466,10214,1648214234,950826060,fufi_imu_link,-0.005431402353566599,-0.011202245134364722,0.005877835265278897,0.9999052258214363,0.0,0.0,0.0,0.0,0.0,0.0,0.0,0.0,0.0,0.0004042730724904686,-0.0018856457900255919,0.005355421453714371,0.01,0.0,0.0,0.0,0.01,0.0,0.0,0.0,0.01,0.25118792057037354,-1.3862816095352173,9.577831268310547,0.01,0.0,0.0,0.0,0.01,0.0,0.0,0.0,0.01
1648214234.979419,10215,1648214234,978861608,fufi_imu_link,-0.005680942825006044,-0.011171206552971092,0.0058944461562645545,0.9999040886691487,0.0,0.0,0.0,0.0,0.0,0.0,0.0,0.0,0.0,0.004271719139069319,0.002090310212224722,0.0009024050086736679,0.01,0.0,0.0,0.0,0.01,0.0,0.0,0.0,0.01,0.20011185109615326,-1.288470983505249,9.512819290161133,0.01,0.0,0.0,0.0,0.01,0.0,0.0,0.0,0.01
1648214234.988264,10216,1648214234,987566281,fufi_imu_link,-0.005952209574175682,-0.011167948263839426,0.005882783834428691,0.9999026157517135,0.0,0.0,0.0,0.0,0.0,0.0,0.0,0.0,0.0,0.005730468314141035,-0.004227953497320414,-0.0035562925040721893,0.01,0.0,0.0,0.0,0.01,0.0,0.0,0.0,0.01,0.12473255395889282,-1.2619450092315674,9.647115707397461,0.01,0.0,0.0,0.0,0.01,0.0,0.0,0.0,0.01
1648214235.0348854,10217,1648214235,34148159,fufi_imu_link,-0.005621324631362248,-0.011056932681731252,0.005560353234331477,0.9999076094424775,0.0,0.0,0.0,0.0,0.0,0.0,0.0,0.0,0.0,0.023093024268746376,0.003867627587169409,-0.01418409962207079,0.01,0.0,0.0,0.0,0.01,0.0,0.0,0.0,0.01,0.1322077512741089,-0.9185959696769714,9.643205642700195,0.01,0.0,0.0,0.0,0.01,0.0,0.0,0.0,0.01
1648214235.0444047,10218,1648214235,43687131,fufi_imu_link,-0.005797948689838414,-0.010978715011524523,0.00547861842418262,0.9999079139340021,0.0,0.0,0.0,0.0,0.0,0.0,0.0,0.0,0.0,0.008668704889714718,0.01307111606001854,-0.0176825113594532,0.01,0.0,0.0,0.0,0.01,0.0,0.0,0.0,0.01,0.14437925815582275,-0.9541161060333252,9.63467788696289,0.01,0.0,0.0,0.0,0.01,0.0,0.0,0.0,0.01
1648214235.0629387,10219,1648214235,62286595,fufi_imu_link,-0.006079061727820638,-0.01078986422863224,0.0052847301772977915,0.9999093436234059,0.0,0.0,0.0,0.0,0.0,0.0,0.0,0.0,0.0,-0.007648267783224583,0.01945560611784458,-0.020904434844851494,0.01,0.0,0.0,0.0,0.01,0.0,0.0,0.0,0.01,0.16657456755638123,-0.9299836754798889,9.624446868896484,0.01,0.0,0.0,0.0,0.01,0.0,0.0,0.0,0.01
1648214235.1102889,10220,1648214235,109669840,fufi_imu_link,-0.00533080519877316,-0.011215975609081283,0.005048824564799318,0.999910142851638,0.0,0.0,0.0,0.0,0.0,0.0,0.0,0.0,0.0,0.03913908079266548,-0.018740354105830193,-0.010584600269794464,0.01,0.0,0.0,0.0,0.01,0.0,0.0,0.0,0.01,0.14727561175823212,-0.7631904482841492,9.063956260681152,0.01,0.0,0.0,0.0,0.01,0.0,0.0,0.0,0.01
1648214235.176018,10221,1648214235,175207552,fufi_imu_link,-0.005697589930114208,-0.010909252005904984,0.004273456633093281,0.9999151280274067,0.0,0.0,0.0,0.0,0.0,0.0,0.0,0.0,0.0,-0.00986951868981123,0.012025933712720871,-0.023491308093070984,0.01,0.0,0.0,0.0,0.01,0.0,0.0,0.0,0.01,0.48288285732269287,-0.2812961935997009,8.904260635375977,0.01,0.0,0.0,0.0,0.01,0.0,0.0,0.0,0.01
1648214235.1851602,10222,1648214235,184568183,fufi_imu_link,-0.005782492555978834,-0.011023564167164622,0.004215871781104735,0.9999136313892405,0.0,0.0,0.0,0.0,0.0,0.0,0.0,0.0,0.0,-0.011019501835107803,-0.009304679930210114,-0.012230247259140015,0.01,0.0,0.0,0.0,0.01,0.0,0.0,0.0,0.01,0.4669181704521179,-0.23738786578178406,9.348730087280273,0.01,0.0,0.0,0.0,0.01,0.0,0.0,0.0,0.01
1648214235.250746,10223,1648214235,250047439,fufi_imu_link,-0.0077648890746969,-0.010572638606768743,0.004285108283050599,0.9999047772950936,0.0,0.0,0.0,0.0,0.0,0.0,0.0,0.0,0.0,-0.059960849583148956,0.014752166345715523,0.0028620753437280655,0.01,0.0,0.0,0.0,0.01,0.0,0.0,0.0,0.01,0.29400020837783813,-0.2124032974243164,9.564626693725586,0.01,0.0,0.0,0.0,0.01,0.0,0.0,0.0,0.01
1648214235.2682872,10224,1648214235,267618430,fufi_imu_link,-0.007615737541806738,-0.010547361899543929,0.004343704645385588,0.999905938540525,0.0,0.0,0.0,0.0,0.0,0.0,0.0,0.0,0.0,0.02107999101281166,0.005651427898555994,0.006471490487456322,0.01,0.0,0.0,0.0,0.01,0.0,0.0,0.0,0.01,0.30315643548965454,-0.28590652346611023,9.723544120788574,0.01,0.0,0.0,0.0,0.01,0.0,0.0,0.0,0.01
1648214235.305823,10225,1648214235,305232140,fufi_imu_link,-0.00775103748813309,-0.010560285857869865,0.0045898320628655126,0.9999036629706346,0.0,0.0,0.0,0.0,0.0,0.0,0.0,0.0,0.0,-0.002041787141934037,-0.0021594353020191193,0.01302977092564106,0.01,0.0,0.0,0.0,0.01,0.0,0.0,0.0,0.01,0.1083417758345604,-0.547576367855072,10.289200782775879,0.01,0.0,0.0,0.0,0.01,0.0,0.0,0.0,0.01
1648214235.314031,10226,1648214235,313668098,fufi_imu_link,-0.007774283502381131,-0.01048188138721193,0.004628844981901401,0.9999041276406166,0.0,0.0,0.0,0.0,0.0,0.0,0.0,0.0,0.0,0.009433169849216938,0.010153515264391899,0.009009409695863724,0.01,0.0,0.0,0.0,0.01,0.0,0.0,0.0,0.01,0.07071805000305176,-0.42071425914764404,10.399795532226562,0.01,0.0,0.0,0.0,0.01,0.0,0.0,0.0,0.01
1648214235.324559,10227,1648214235,324339902,fufi_imu_link,-0.007801212832490077,-0.010246073603830425,0.004655793644623697,0.9999062369240357,0.0,0.0,0.0,0.0,0.0,0.0,0.0,0.0,0.0,0.00033922141301445663,0.023701846599578857,0.005017755553126335,0.01,0.0,0.0,0.0,0.01,0.0,0.0,0.0,0.01,-0.23673629760742188,-0.2726586163043976,10.253398895263672,0.01,0.0,0.0,0.0,0.01,0.0,0.0,0.0,0.01
1648214235.3424718,10228,1648214235,342222526,fufi_imu_link,-0.007941058971345727,-0.009977326274448688,0.004601535669042491,0.9999081049838097,0.0,0.0,0.0,0.0,0.0,0.0,0.0,0.0,0.0,-0.011238881386816502,0.024507462978363037,-0.005850782617926598,0.01,0.0,0.0,0.0,0.01,0.0,0.0,0.0,0.01,-0.0030055157840251923,-0.31305819749832153,9.980794906616211,0.01,0.0,0.0,0.0,0.01,0.0,0.0,0.0,0.01
1648214235.3798754,10229,1648214235,379592870,fufi_imu_link,-0.00837251120074547,-0.01014264595175207,0.004517560011018702,0.9999033050454617,0.0,0.0,0.0,0.0,0.0,0.0,0.0,0.0,0.0,-0.025383055210113525,-0.009517267346382141,-0.004301561042666435,0.01,0.0,0.0,0.0,0.01,0.0,0.0,0.0,0.01,0.13693653047084808,-0.004074722062796354,9.651288986206055,0.01,0.0,0.0,0.0,0.01,0.0,0.0,0.0,0.01
1648214235.387995,10230,1648214235,387655927,fufi_imu_link,-0.008377326709288382,-0.010191754468227544,0.004484619664018765,0.9999029136493873,0.0,0.0,0.0,0.0,0.0,0.0,0.0,0.0,0.0,-0.00824708305299282,-0.01816118136048317,-0.008221205323934555,0.01,0.0,0.0,0.0,0.01,0.0,0.0,0.0,0.01,0.10743162781000137,-0.05832695960998535,10.13962173461914,0.01,0.0,0.0,0.0,0.01,0.0,0.0,0.0,0.01
1648214235.4176695,10231,1648214235,417099702,fufi_imu_link,-0.008455560088848487,-0.009918353859362293,0.0041104527451291464,0.9999066126086648,0.0,0.0,0.0,0.0,0.0,0.0,0.0,0.0,0.0,-0.008473353460431099,0.017587190493941307,-0.025165434926748276,0.01,0.0,0.0,0.0,0.01,0.0,0.0,0.0,0.01,0.11616490036249161,0.004642654210329056,9.214595794677734,0.01,0.0,0.0,0.0,0.01,0.0,0.0,0.0,0.01
1648214235.454656,10232,1648214235,454215245,fufi_imu_link,-0.008341949082968512,-0.010100615501539397,0.003060158228174462,0.9999095083474334,0.0,0.0,0.0,0.0,0.0,0.0,0.0,0.0,0.0,0.0009892849484458566,-0.009676996618509293,-0.05664987862110138,0.01,0.0,0.0,0.0,0.01,0.0,0.0,0.0,0.01,0.17480377852916718,0.16418838500976562,9.810543060302734,0.01,0.0,0.0,0.0,0.01,0.0,0.0,0.0,0.01
1648214235.4631982,10233,1648214235,462614589,fufi_imu_link,-0.008166469909242918,-0.010063477762893949,0.0027572090749282863,0.9999122126380169,0.0,0.0,0.0,0.0,0.0,0.0,0.0,0.0,0.0,0.01815013401210308,-0.01614968292415142,-0.07244075834751129,0.01,0.0,0.0,0.0,0.01,0.0,0.0,0.0,0.01,-0.21237993240356445,0.20695866644382477,9.43123722076416,0.01,0.0,0.0,0.0,0.01,0.0,0.0,0.0,0.01
1648214235.501418,10234,1648214235,500731912,fufi_imu_link,-0.008097498191755401,-0.009710292509870074,-0.00023979497947839717,0.9999200384234608,0.0,0.0,0.0,0.0,0.0,0.0,0.0,0.0,0.0,-0.005092516075819731,0.01607576012611389,-0.15704356133937836,0.01,0.0,0.0,0.0,0.01,0.0,0.0,0.0,0.01,-0.0904429629445076,0.38157689571380615,9.978321075439453,0.01,0.0,0.0,0.0,0.01,0.0,0.0,0.0,0.01
1648214235.5303423,10235,1648214235,528945997,fufi_imu_link,-0.008333313707573188,-0.0095966316392399,-0.0031242504669569985,0.9999143461331335,0.0,0.0,0.0,0.0,0.0,0.0,0.0,0.0,0.0,-0.028219057247042656,0.0004916130565106869,-0.2041933536529541,0.01,0.0,0.0,0.0,0.01,0.0,0.0,0.0,0.01,-0.3270089030265808,0.36731570959091187,10.008841514587402,0.01,0.0,0.0,0.0,0.01,0.0,0.0,0.0,0.01
1648214235.5382354,10236,1648214235,537570601,fufi_imu_link,-0.008273080102295221,-0.009567385489976685,-0.004112609543012504,0.9999115499499213,0.0,0.0,0.0,0.0,0.0,0.0,0.0,0.0,0.0,-0.022366367280483246,-0.014682237058877945,-0.2289866805076599,0.01,0.0,0.0,0.0,0.01,0.0,0.0,0.0,0.01,-0.21048623323440552,0.4204466938972473,9.993242263793945,0.01,0.0,0.0,0.0,0.01,0.0,0.0,0.0,0.01
1648214235.5847783,10237,1648214235,584174418,fufi_imu_link,-0.007844033120150683,-0.009237734759830536,-0.011635713135413202,0.9998588628305235,0.0,0.0,0.0,0.0,0.0,0.0,0.0,0.0,0.0,0.006954266224056482,0.013654620386660099,-0.32279694080352783,0.01,0.0,0.0,0.0,0.01,0.0,0.0,0.0,0.01,-0.11256798356771469,0.5852833986282349,9.548238754272461,0.01,0.0,0.0,0.0,0.01,0.0,0.0,0.0,0.01
1648214235.6045454,10238,1648214235,603885510,fufi_imu_link,-0.007436262066297587,-0.009081995143781644,-0.015118160082381106,0.9998168135245642,0.0,0.0,0.0,0.0,0.0,0.0,0.0,0.0,0.0,0.017391491681337357,0.013745659962296486,-0.35330864787101746,0.01,0.0,0.0,0.0,0.01,0.0,0.0,0.0,0.01,-0.02574191242456436,0.6554088592529297,9.952825546264648,0.01,0.0,0.0,0.0,0.01,0.0,0.0,0.0,0.01
1648214235.6134121,10239,1648214235,612343003,fufi_imu_link,-0.007323454888649916,-0.009039796620176363,-0.01665580785029452,0.9997935952737514,0.0,0.0,0.0,0.0,0.0,0.0,0.0,0.0,0.0,-0.029201844707131386,-0.0008895094506442547,-0.3630427122116089,0.01,0.0,0.0,0.0,0.01,0.0,0.0,0.0,0.01,-0.05217142775654793,0.7290270328521729,9.858743667602539,0.01,0.0,0.0,0.0,0.01,0.0,0.0,0.0,0.01
1648214235.6597495,10240,1648214235,658941250,fufi_imu_link,-0.0072600362080565365,-0.009035501323517365,-0.02521542522874233,0.9996148427872729,0.0,0.0,0.0,0.0,0.0,0.0,0.0,0.0,0.0,-0.010594097897410393,0.0036734603345394135,-0.36727374792099,0.01,0.0,0.0,0.0,0.01,0.0,0.0,0.0,0.01,0.2423975169658661,0.7510534524917603,9.584259033203125,0.01,0.0,0.0,0.0,0.01,0.0,0.0,0.0,0.01
1648214235.660325,10241,1648214235,659899430,fufi_imu_link,-0.007044998090397309,-0.009039280515068145,-0.025391782634379387,0.9996118830747885,0.0,0.0,0.0,0.0,0.0,0.0,0.0,0.0,0.0,0.01545995194464922,-4.493631422519684e-06,-0.36439210176467896,0.01,0.0,0.0,0.0,0.01,0.0,0.0,0.0,0.01,0.16673073172569275,0.6618427634239197,9.65810775756836,0.01,0.0,0.0,0.0,0.01,0.0,0.0,0.0,0.01
1648214235.6878023,10242,1648214235,687152366,fufi_imu_link,-0.006990275193626589,-0.009013079404234415,-0.029984074075335685,0.9994852954167036,0.0,0.0,0.0,0.0,0.0,0.0,0.0,0.0,0.0,-0.015194473788142204,0.008680980652570724,-0.33678901195526123,0.01,0.0,0.0,0.0,0.01,0.0,0.0,0.0,0.01,0.40768879652023315,0.7214902639389038,9.756044387817383,0.01,0.0,0.0,0.0,0.01,0.0,0.0,0.0,0.01
1648214235.7260456,10243,1648214235,725212694,fufi_imu_link,-0.006937825977848177,-0.00905835027013349,-0.03540197508286464,0.999308017090485,0.0,0.0,0.0,0.0,0.0,0.0,0.0,0.0,0.0,-0.005066353362053633,0.0031900014728307724,-0.28473398089408875,0.01,0.0,0.0,0.0,0.01,0.0,0.0,0.0,0.01,0.43253204226493835,0.25481536984443665,9.500665664672852,0.01,0.0,0.0,0.0,0.01,0.0,0.0,0.0,0.01
