Time,header.seq,header.stamp.secs,header.stamp.nsecs,header.frame_id,orientation.x,orientation.y,orientation.z,orientation.w,orientation_covariance_0,orientation_covariance_1,orientation_covariance_2,orientation_covariance_3,orientation_covariance_4,orientation_covariance_5,orientation_covariance_6,orientation_covariance_7,orientation_covariance_8,angular_velocity.x,angular_velocity.y,angular_velocity.z,angular_velocity_covariance_0,angular_velocity_covariance_1,angular_velocity_covariance_2,angular_velocity_covariance_3,angular_velocity_covariance_4,angular_velocity_covariance_5,angular_velocity_covariance_6,angular_velocity_covariance_7,angular_velocity_covariance_8,linear_acceleration.x,linear_acceleration.y,linear_acceleration.z,linear_acceleration_covariance_0,linear_acceleration_covariance_1,linear_acceleration_covariance_2,linear_acceleration_covariance_3,linear_acceleration_covariance_4,linear_acceleration_covariance_5,linear_acceleration_covariance_6,linear_acceleration_covariance_7,linear_acceleration_covariance_8
1648214153.9586537,7006,1648214153,958387810,fufi_imu_link,-0.0037988273016238967,-0.007514521928523669,0.0036354905040092557,0.9999579411555836,0.0,0.0,0.0,0.0,0.0,0.0,0.0,0.0,0.0,0.025502361357212067,-0.007958462461829185,0.004258802160620689,0.01,0.0,0.0,0.0,0.01,0.0,0.0,0.0,0.01,0.17278671264648438,-0.280295193195343,9.71112060546875,0.01,0.0,0.0,0.0,0.01,0.0,0.0,0.0,0.01
1648214153.9589396,7007,1648214153,958786525,fufi_imu_link,-0.0038496688730433985,-0.0075189733744599275,0.003635319048726966,0.9999577138781299,0.0,0.0,0.0,0.0,0.0,0.0,0.0,0.0,0.0,0.008701875805854797,-0.0017821905203163624,-0.0028321444988250732,0.01,0.0,0.0,0.0,0.01,0.0,0.0,0.0,0.01,0.15744727849960327,-0.2727133631706238,9.502224922180176,0.01,0.0,0.0,0.0,0.01,0.0,0.0,0.0,0.01
1648214154.0251327,7008,1648214154,24304353,fufi_imu_link,-0.0035544775108042343,-0.007936725798972494,0.003211923448725934,0.9999570278871871,0.0,0.0,0.0,0.0,0.0,0.0,0.0,0.0,0.0,0.009936313144862652,-0.008720912039279938,-0.013027383014559746,0.01,0.0,0.0,0.0,0.01,0.0,0.0,0.0,0.01,0.659412145614624,-0.20378504693508148,9.652398109436035,0.01,0.0,0.0,0.0,0.01,0.0,0.0,0.0,0.01
1648214154.0338619,7009,1648214154,33639064,fufi_imu_link,-0.003565697814336319,-0.008054539101336767,0.0031486087179878716,0.9999562472739009,0.0,0.0,0.0,0.0,0.0,0.0,0.0,0.0,0.0,0.00476201344281435,0.0076571679674088955,-0.013516880571842194,0.01,0.0,0.0,0.0,0.01,0.0,0.0,0.0,0.01,0.7415221929550171,-0.20037683844566345,9.595979690551758,0.01,0.0,0.0,0.0,0.01,0.0,0.0,0.0,0.01
1648214154.0695682,7010,1648214154,69339921,fufi_imu_link,-0.00333512551736467,-0.007813858950869716,0.0026181490401423137,0.9999604821400109,0.0,0.0,0.0,0.0,0.0,0.0,0.0,0.0,0.0,0.015047050081193447,0.02233373001217842,-0.029748186469078064,0.01,0.0,0.0,0.0,0.01,0.0,0.0,0.0,0.01,0.7884277701377869,-0.2344588339328766,10.080923080444336,0.01,0.0,0.0,0.0,0.01,0.0,0.0,0.0,0.01
1648214154.0992472,7011,1648214154,98966364,fufi_imu_link,-0.0030784880584203505,-0.007820826469828566,0.0023009701850389428,0.9999620308395768,0.0,0.0,0.0,0.0,0.0,0.0,0.0,0.0,0.0,0.016377758234739304,0.007337873801589012,-0.02148588001728058,0.01,0.0,0.0,0.0,0.01,0.0,0.0,0.0,0.01,0.581743061542511,-0.01494824793189764,9.446158409118652,0.01,0.0,0.0,0.0,0.01,0.0,0.0,0.0,0.01
1648214154.1173077,7012,1648214154,116959479,fufi_imu_link,-0.002892678986140712,-0.007889581195662654,0.0021755549095145376,0.9999623262291815,0.0,0.0,0.0,0.0,0.0,0.0,0.0,0.0,0.0,0.0197062436491251,0.003990793600678444,-0.014042188413441181,0.01,0.0,0.0,0.0,0.01,0.0,0.0,0.0,0.01,0.5570769309997559,-0.027851969003677368,9.687931060791016,0.01,0.0,0.0,0.0,0.01,0.0,0.0,0.0,0.01
1648214154.1546922,7013,1648214154,154431868,fufi_imu_link,-0.0029708829692281164,-0.007702534200180794,0.0023086295453917396,0.9999632568504208,0.0,0.0,0.0,0.0,0.0,0.0,0.0,0.0,0.0,-0.006113431882113218,0.01298745721578598,0.0072132013738155365,0.01,0.0,0.0,0.0,0.01,0.0,0.0,0.0,0.01,0.354756236076355,0.08495157212018967,9.36003589630127,0.01,0.0,0.0,0.0,0.01,0.0,0.0,0.0,0.01
1648214154.1635036,7014,1648214154,163203753,fufi_imu_link,-0.0029795945761611894,-0.007680315061551506,0.00235068510327208,0.9999633038548277,0.0,0.0,0.0,0.0,0.0,0.0,0.0,0.0,0.0,0.0028851982206106186,0.009664932265877724,0.00957280583679676,0.01,0.0,0.0,0.0,0.01,0.0,0.0,0.0,0.01,0.22677341103553772,-0.1389833390712738,9.682219505310059,0.01,0.0,0.0,0.0,0.01,0.0,0.0,0.0,0.01
1648214154.174122,7015,1648214154,173807272,fufi_imu_link,-0.0030006843016069074,-0.007634578811548921,0.0024283345890718584,0.9999634054760284,0.0,0.0,0.0,0.0,0.0,0.0,0.0,0.0,0.0,-0.00665453402325511,0.004889211151748896,0.014722367748618126,0.01,0.0,0.0,0.0,0.01,0.0,0.0,0.0,0.01,0.07160137593746185,-0.0010481765493750572,9.62154769897461,0.01,0.0,0.0,0.0,0.01,0.0,0.0,0.0,0.01
1648214154.1919305,7016,1648214154,191634127,fufi_imu_link,-0.0029365053874292326,-0.007566396724100346,0.0025686817282974056,0.9999637635689115,0.0,0.0,0.0,0.0,0.0,0.0,0.0,0.0,0.0,0.007199869025498629,0.00347495311871171,0.015690447762608528,0.01,0.0,0.0,0.0,0.01,0.0,0.0,0.0,0.01,0.0052713677287101746,-0.05306890606880188,9.796454429626465,0.01,0.0,0.0,0.0,0.01,0.0,0.0,0.0,0.01
1648214154.2294254,7017,1648214154,229152993,fufi_imu_link,-0.003127159817739636,-0.007367726724557981,0.0029719965769718385,0.9999635516911269,0.0,0.0,0.0,0.0,0.0,0.0,0.0,0.0,0.0,-0.01071765087544918,0.009198777377605438,0.02160940133035183,0.01,0.0,0.0,0.0,0.01,0.0,0.0,0.0,0.01,0.04404832795262337,-0.0070103127509355545,9.557174682617188,0.01,0.0,0.0,0.0,0.01,0.0,0.0,0.0,0.01
1648214154.237517,7018,1648214154,237231916,fufi_imu_link,-0.0031928384384155885,-0.007233035720134014,0.003051592017803799,0.9999640877367219,0.0,0.0,0.0,0.0,0.0,0.0,0.0,0.0,0.0,-0.006106986664235592,0.007702450733631849,0.019619837403297424,0.01,0.0,0.0,0.0,0.01,0.0,0.0,0.0,0.01,-0.2610682249069214,-0.2180396020412445,9.750255584716797,0.01,0.0,0.0,0.0,0.01,0.0,0.0,0.0,0.01
1648214154.2668839,7019,1648214154,266532268,fufi_imu_link,-0.003227116168172886,-0.007205094533089961,0.003129643759568214,0.9999639381817449,0.0,0.0,0.0,0.0,0.0,0.0,0.0,0.0,0.0,-0.00020362233044579625,-0.003835272043943405,0.005283329635858536,0.01,0.0,0.0,0.0,0.01,0.0,0.0,0.0,0.01,-0.18338054418563843,-0.18003274500370026,9.62867259979248,0.01,0.0,0.0,0.0,0.01,0.0,0.0,0.0,0.01
1648214154.3039496,7020,1648214154,303653320,fufi_imu_link,-0.003100857369755704,-0.00715213624468886,0.002966707702662297,0.9999652145330441,0.0,0.0,0.0,0.0,0.0,0.0,0.0,0.0,0.0,0.008066626265645027,-0.0033131649252027273,-0.008876584470272064,0.01,0.0,0.0,0.0,0.01,0.0,0.0,0.0,0.01,-0.3019745647907257,-0.15413090586662292,9.635541915893555,0.01,0.0,0.0,0.0,0.01,0.0,0.0,0.0,0.01
1648214154.3121898,7021,1648214154,311980747,fufi_imu_link,-0.0031166248771604898,-0.007063497417319947,0.002914279397316718,0.9999659497348922,0.0,0.0,0.0,0.0,0.0,0.0,0.0,0.0,0.0,0.0008680468890815973,0.003120100125670433,-0.012679221108555794,0.01,0.0,0.0,0.0,0.01,0.0,0.0,0.0,0.01,-0.15794441103935242,-0.13779336214065552,9.817337036132812,0.01,0.0,0.0,0.0,0.01,0.0,0.0,0.0,0.01
1648214154.350326,7022,1648214154,350093578,fufi_imu_link,-0.0029650604784949744,-0.007386132135713344,0.0027036019592480156,0.9999646713783836,0.0,0.0,0.0,0.0,0.0,0.0,0.0,0.0,0.0,0.0077512226998806,-0.019143708050251007,-0.011176382191479206,0.01,0.0,0.0,0.0,0.01,0.0,0.0,0.0,0.01,-0.0204881951212883,-0.05237090587615967,9.679698944091797,0.01,0.0,0.0,0.0,0.01,0.0,0.0,0.0,0.01
1648214154.3789465,7023,1648214154,378436596,fufi_imu_link,-0.003020888790955306,-0.007514844918331489,0.0026033073899301286,0.9999638114088928,0.0,0.0,0.0,0.0,0.0,0.0,0.0,0.0,0.0,-0.002626539207994938,-0.011420486494898796,-0.007109584286808968,0.01,0.0,0.0,0.0,0.01,0.0,0.0,0.0,0.01,0.016201024875044823,-0.13679440319538116,9.824905395507812,0.01,0.0,0.0,0.0,0.01,0.0,0.0,0.0,0.01
1648214154.3870518,7024,1648214154,386737759,fufi_imu_link,-0.003022434858788794,-0.007494746424538576,0.0025815528604204857,0.9999640139766957,0.0,0.0,0.0,0.0,0.0,0.0,0.0,0.0,0.0,0.004572973120957613,0.0029212860390543938,-0.005310177803039551,0.01,0.0,0.0,0.0,0.01,0.0,0.0,0.0,0.01,0.11679114401340485,-0.14186084270477295,9.920223236083984,0.01,0.0,0.0,0.0,0.01,0.0,0.0,0.0,0.01
1648214154.4339702,7025,1648214154,433686196,fufi_imu_link,-0.0027980011035258294,-0.007567062552600434,0.0025585044513794833,0.999964181763088,0.0,0.0,0.0,0.0,0.0,0.0,0.0,0.0,0.0,0.01036167237907648,-0.0032111257314682007,-0.0010757353156805038,0.01,0.0,0.0,0.0,0.01,0.0,0.0,0.0,0.01,0.13571502268314362,-0.12765057384967804,9.622772216796875,0.01,0.0,0.0,0.0,0.01,0.0,0.0,0.0,0.01
1648214154.4432564,7026,1648214154,442889103,fufi_imu_link,-0.0027038690313614037,-0.007640033796620875,0.002556627872263855,0.9999638906629432,0.0,0.0,0.0,0.0,0.0,0.0,0.0,0.0,0.0,0.02657337486743927,-0.014940224587917328,-0.0006950590759515762,0.01,0.0,0.0,0.0,0.01,0.0,0.0,0.0,0.01,0.1704886257648468,-0.16740180552005768,10.00322151184082,0.01,0.0,0.0,0.0,0.01,0.0,0.0,0.0,0.01
1648214154.4618208,7027,1648214154,461461453,fufi_imu_link,-0.0026363065256023123,-0.00769740828018066,0.002540686228399927,0.9999636716937071,0.0,0.0,0.0,0.0,0.0,0.0,0.0,0.0,0.0,0.008876324631273746,-0.003669878002256155,-0.0018002856522798538,0.01,0.0,0.0,0.0,0.01,0.0,0.0,0.0,0.01,0.23844407498836517,-0.10941743105649948,9.649497985839844,0.01,0.0,0.0,0.0,0.01,0.0,0.0,0.0,0.01
1648214154.5087063,7028,1648214154,508374605,fufi_imu_link,-0.0028716166232794762,-0.0078817563835241,0.0026725889750314575,0.9999612437502017,0.0,0.0,0.0,0.0,0.0,0.0,0.0,0.0,0.0,-0.010450071655213833,-0.0068286447785794735,0.005692370235919952,0.01,0.0,0.0,0.0,0.01,0.0,0.0,0.0,0.01,0.23947688937187195,-0.01573810540139675,9.472963333129883,0.01,0.0,0.0,0.0,0.01,0.0,0.0,0.0,0.01
1648214154.5089335,7029,1648214154,508707881,fufi_imu_link,-0.0028286854104071285,-0.007937186920173336,0.00267337378329128,0.9999609255742236,0.0,0.0,0.0,0.0,0.0,0.0,0.0,0.0,0.0,0.007069094572216272,-0.004068038892000914,0.007566381245851517,0.01,0.0,0.0,0.0,0.01,0.0,0.0,0.0,0.01,0.35986971855163574,0.10374630987644196,9.541305541992188,0.01,0.0,0.0,0.0,0.01,0.0,0.0,0.0,0.01
1648214154.574636,7030,1648214154,574235129,fufi_imu_link,-0.0034970825505108876,-0.008486194186480174,0.0027436799705786745,0.9999541125182112,0.0,0.0,0.0,0.0,0.0,0.0,0.0,0.0,0.0,-0.021372800692915916,-0.01547519862651825,0.0022842194885015488,0.01,0.0,0.0,0.0,0.01,0.0,0.0,0.0,0.01,0.3160421550273895,0.05051289498806,9.560400009155273,0.01,0.0,0.0,0.0,0.01,0.0,0.0,0.0,0.01
1648214154.583725,7031,1648214154,583488530,fufi_imu_link,-0.0035460404071912203,-0.008597282784247824,0.002764224463783058,0.9999529345870595,0.0,0.0,0.0,0.0,0.0,0.0,0.0,0.0,0.0,-0.017072301357984543,-0.014005112461745739,0.004627889022231102,0.01,0.0,0.0,0.0,0.01,0.0,0.0,0.0,0.01,0.34528064727783203,0.04625042527914047,9.701006889343262,0.01,0.0,0.0,0.0,0.01,0.0,0.0,0.0,0.01
1648214154.6493478,7032,1648214154,648974478,fufi_imu_link,-0.003743417563999741,-0.008555679094007172,0.002862791447028809,0.9999522946647569,0.0,0.0,0.0,0.0,0.0,0.0,0.0,0.0,0.0,-0.005898672621697187,0.0024606576189398766,0.003073548898100853,0.01,0.0,0.0,0.0,0.01,0.0,0.0,0.0,0.01,0.3215714693069458,-0.08736800402402878,9.883508682250977,0.01,0.0,0.0,0.0,0.01,0.0,0.0,0.0,0.01
1648214154.6673863,7033,1648214154,666999393,fufi_imu_link,-0.0037430007333968856,-0.008673403601756897,0.0028835888154732435,0.9999512222758739,0.0,0.0,0.0,0.0,0.0,0.0,0.0,0.0,0.0,-0.00032973315683193505,-0.009558417834341526,0.002291198819875717,0.01,0.0,0.0,0.0,0.01,0.0,0.0,0.0,0.01,0.2937212884426117,-0.061347782611846924,9.811323165893555,0.01,0.0,0.0,0.0,0.01,0.0,0.0,0.0,0.01
1648214154.7047353,7034,1648214154,704388939,fufi_imu_link,-0.0038661669681464205,-0.008503087537923544,0.0027334201520940356,0.9999526382132151,0.0,0.0,0.0,0.0,0.0,0.0,0.0,0.0,0.0,-0.006862261798232794,0.010649504140019417,-0.007925862446427345,0.01,0.0,0.0,0.0,0.01,0.0,0.0,0.0,0.01,0.27637457847595215,-0.05961773544549942,9.842866897583008,0.01,0.0,0.0,0.0,0.01,0.0,0.0,0.0,0.01
1648214154.7134352,7035,1648214154,713132663,fufi_imu_link,-0.0037829838570343547,-0.008516243946823491,0.002709422970679571,0.9999529097159234,0.0,0.0,0.0,0.0,0.0,0.0,0.0,0.0,0.0,0.01050904393196106,0.005860384553670883,-0.005449976772069931,0.01,0.0,0.0,0.0,0.01,0.0,0.0,0.0,0.01,0.3176683783531189,0.06958843767642975,9.771430015563965,0.01,0.0,0.0,0.0,0.01,0.0,0.0,0.0,0.01
1648214154.7241561,7036,1648214154,723813623,fufi_imu_link,-0.0038161461455006973,-0.00851528073527722,0.00269487730827415,0.9999528312169975,0.0,0.0,0.0,0.0,0.0,0.0,0.0,0.0,0.0,-0.010502072982490063,-0.0005142791196703911,-0.002602800726890564,0.01,0.0,0.0,0.0,0.01,0.0,0.0,0.0,0.01,0.14815300703048706,0.013394255191087723,9.572004318237305,0.01,0.0,0.0,0.0,0.01,0.0,0.0,0.0,0.01
1648214154.741981,7037,1648214154,741706208,fufi_imu_link,-0.003815378091664173,-0.008631814829383484,0.0026418997900856584,0.9999519763609991,0.0,0.0,0.0,0.0,0.0,0.0,0.0,0.0,0.0,0.001417755614966154,-0.01598283275961876,-0.006018791347742081,0.01,0.0,0.0,0.0,0.01,0.0,0.0,0.0,0.01,0.06339877098798752,-0.1215963214635849,9.553823471069336,0.01,0.0,0.0,0.0,0.01,0.0,0.0,0.0,0.01
1648214154.7794263,7038,1648214154,779150489,fufi_imu_link,-0.0039376172706894865,-0.008542610195769214,0.0024137706878219717,0.9999528452343838,0.0,0.0,0.0,0.0,0.0,0.0,0.0,0.0,0.0,-0.007195428013801575,0.003583034034818411,-0.012109851464629173,0.01,0.0,0.0,0.0,0.01,0.0,0.0,0.0,0.01,0.07498695701360703,-0.035064421594142914,9.632757186889648,0.01,0.0,0.0,0.0,0.01,0.0,0.0,0.0,0.01
1648214154.7874677,7039,1648214154,787176987,fufi_imu_link,-0.0038753953788448316,-0.00853010905336952,0.0023650275392810183,0.9999533115075593,0.0,0.0,0.0,0.0,0.0,0.0,0.0,0.0,0.0,0.015094324015080929,-0.002016900572925806,-0.012300500646233559,0.01,0.0,0.0,0.0,0.01,0.0,0.0,0.0,0.01,0.0845620259642601,-0.06985567510128021,9.579729080200195,0.01,0.0,0.0,0.0,0.01,0.0,0.0,0.0,0.01
1648214154.8167899,7040,1648214154,816512941,fufi_imu_link,-0.003887041016862032,-0.008827739666286001,0.002128061690480042,0.9999512154490133,0.0,0.0,0.0,0.0,0.0,0.0,0.0,0.0,0.0,-0.0013901910278946161,-0.02375960722565651,-0.016246546059846878,0.01,0.0,0.0,0.0,0.01,0.0,0.0,0.0,0.01,-0.028802448883652687,-0.05233169347047806,9.647930145263672,0.01,0.0,0.0,0.0,0.01,0.0,0.0,0.0,0.01
1648214154.853888,7041,1648214154,853667041,fufi_imu_link,-0.0041073469130613605,-0.008814368486339727,0.001980554402027816,0.9999507557943959,0.0,0.0,0.0,0.0,0.0,0.0,0.0,0.0,0.0,-0.011048609390854836,-0.0012767431326210499,-0.007864341139793396,0.01,0.0,0.0,0.0,0.01,0.0,0.0,0.0,0.01,0.023421797901391983,-0.14173750579357147,9.609257698059082,0.01,0.0,0.0,0.0,0.01,0.0,0.0,0.0,0.01
1648214154.8621542,7042,1648214154,861958117,fufi_imu_link,-0.0040819121711608295,-0.00878885114227704,0.0019570492767585356,0.9999511308292792,0.0,0.0,0.0,0.0,0.0,0.0,0.0,0.0,0.0,0.010320502333343029,0.004499880131334066,-0.005786668509244919,0.01,0.0,0.0,0.0,0.01,0.0,0.0,0.0,0.01,0.14231613278388977,-0.14574545621871948,9.607789993286133,0.01,0.0,0.0,0.0,0.01,0.0,0.0,0.0,0.01
1648214154.9005053,7043,1648214154,900098598,fufi_imu_link,-0.003968155068178905,-0.008782615349424674,0.0018795280930190377,0.9999517922315689,0.0,0.0,0.0,0.0,0.0,0.0,0.0,0.0,0.0,0.007192176301032305,-0.0017264834605157375,-0.004154803231358528,0.01,0.0,0.0,0.0,0.01,0.0,0.0,0.0,0.01,0.0188482366502285,-0.17202338576316833,9.799142837524414,0.01,0.0,0.0,0.0,0.01,0.0,0.0,0.0,0.01
1648214154.9287689,7044,1648214154,928446552,fufi_imu_link,-0.004075340955327042,-0.008787414200914868,0.0018028966590609996,0.999951460077636,0.0,0.0,0.0,0.0,0.0,0.0,0.0,0.0,0.0,-0.009407400153577328,-0.0005591507069766521,-0.005311621353030205,0.01,0.0,0.0,0.0,0.01,0.0,0.0,0.0,0.01,0.15765252709388733,0.01916276104748249,9.781846046447754,0.01,0.0,0.0,0.0,0.01,0.0,0.0,0.0,0.01
1648214154.9370515,7045,1648214154,936776763,fufi_imu_link,-0.0040293433231881875,-0.00879275474037716,0.0017981750558348946,0.9999516080405731,0.0,0.0,0.0,0.0,0.0,0.0,0.0,0.0,0.0,0.007245650514960289,-0.00022590206936001778,-0.0011606719344854355,0.01,0.0,0.0,0.0,0.01,0.0,0.0,0.0,0.01,0.1852898746728897,-0.017372705042362213,9.575769424438477,0.01,0.0,0.0,0.0,0.01,0.0,0.0,0.0,0.01
1648214154.9840853,7046,1648214154,983735762,fufi_imu_link,-0.004168491122403781,-0.008844764610333712,0.0018342512247166453,0.999950513447138,0.0,0.0,0.0,0.0,0.0,0.0,0.0,0.0,0.0,-0.004737047478556633,-0.002737032249569893,0.0015545673668384552,0.01,0.0,0.0,0.0,0.01,0.0,0.0,0.0,0.01,0.12244267761707306,-0.18617936968803406,9.597260475158691,0.01,0.0,0.0,0.0,0.01,0.0,0.0,0.0,0.01
1648214155.003736,7047,1648214155,3340220,fufi_imu_link,-0.004425269900445848,-0.008797425689678296,0.0018231193260541299,0.9999498480041216,0.0,0.0,0.0,0.0,0.0,0.0,0.0,0.0,0.0,-0.02727550081908703,0.005445127375423908,-0.0008597485721111298,0.01,0.0,0.0,0.0,0.01,0.0,0.0,0.0,0.01,0.19015254080295563,-0.04490320384502411,9.612634658813477,0.01,0.0,0.0,0.0,0.01,0.0,0.0,0.0,0.01
1648214155.0125723,7048,1648214155,12202994,fufi_imu_link,-0.004440123170645876,-0.008780641990665004,0.0018026062443662189,0.9999499668699374,0.0,0.0,0.0,0.0,0.0,0.0,0.0,0.0,0.0,-0.0008300078334286809,0.005223188549280167,-0.0046149566769599915,0.01,0.0,0.0,0.0,0.01,0.0,0.0,0.0,0.01,0.19272875785827637,-0.12912055850028992,9.619949340820312,0.01,0.0,0.0,0.0,0.01,0.0,0.0,0.0,0.01
1648214155.0587912,7049,1648214155,58500618,fufi_imu_link,-0.004569420718292756,-0.008974249631103954,0.0016994748573698711,0.9999478461515215,0.0,0.0,0.0,0.0,0.0,0.0,0.0,0.0,0.0,-0.007166774943470955,-0.006770312786102295,-0.004401620477437973,0.01,0.0,0.0,0.0,0.01,0.0,0.0,0.0,0.01,0.31294816732406616,0.047481607645750046,9.67321491241455,0.01,0.0,0.0,0.0,0.01,0.0,0.0,0.0,0.01
1648214155.0591567,7050,1648214155,58890018,fufi_imu_link,-0.004562045221790525,-0.009001598218838688,0.0016985292856015093,0.999947635614569,0.0,0.0,0.0,0.0,0.0,0.0,0.0,0.0,0.0,0.0004330282099545002,-0.009503901936113834,-0.003968318924307823,0.01,0.0,0.0,0.0,0.01,0.0,0.0,0.0,0.01,0.2797318696975708,-0.06235789507627487,9.937790870666504,0.01,0.0,0.0,0.0,0.01,0.0,0.0,0.0,0.01
1648214155.0865955,7051,1648214155,86249292,fufi_imu_link,-0.004680562126046261,-0.008843979516775947,0.0016209407792465158,0.9999486231379496,0.0,0.0,0.0,0.0,0.0,0.0,0.0,0.0,0.0,-0.007856733165681362,0.014149563387036324,-0.0055320486426353455,0.01,0.0,0.0,0.0,0.01,0.0,0.0,0.0,0.01,0.3052206337451935,-0.1340627521276474,9.607072830200195,0.01,0.0,0.0,0.0,0.01,0.0,0.0,0.0,0.01
1648214155.1246374,7052,1648214155,124322042,fufi_imu_link,-0.004543320008466971,-0.008976160652086887,0.0014553401007602448,0.999948333049483,0.0,0.0,0.0,0.0,0.0,0.0,0.0,0.0,0.0,0.007994504645466805,-0.005441135726869106,-0.00879688747227192,0.01,0.0,0.0,0.0,0.01,0.0,0.0,0.0,0.01,0.277240514755249,-0.14985735714435577,9.522955894470215,0.01,0.0,0.0,0.0,0.01,0.0,0.0,0.0,0.01
1648214155.1338584,7053,1648214155,133563915,fufi_imu_link,-0.00452235507140895,-0.008988430101882551,0.0014065859811548372,0.9999483876404769,0.0,0.0,0.0,0.0,0.0,0.0,0.0,0.0,0.0,0.0180829931050539,-0.011066805571317673,-0.01092480681836605,0.01,0.0,0.0,0.0,0.01,0.0,0.0,0.0,0.01,0.023982776328921318,-0.34004271030426025,9.94748306274414,0.01,0.0,0.0,0.0,0.01,0.0,0.0,0.0,0.01
1648214155.1995823,7054,1648214155,199205804,fufi_imu_link,-0.00465872410732391,-0.009187550557891605,0.001350742471778278,0.9999460288931663,0.0,0.0,0.0,0.0,0.0,0.0,0.0,0.0,0.0,-0.004769684746861458,-0.005920073948800564,-0.0016793981194496155,0.01,0.0,0.0,0.0,0.01,0.0,0.0,0.0,0.01,0.19140973687171936,-0.015447070822119713,9.517778396606445,0.01,0.0,0.0,0.0,0.01,0.0,0.0,0.0,0.01
1648214155.217417,7055,1648214155,217104400,fufi_imu_link,-0.004560946780823525,-0.009278636839715507,0.0013553563426065964,0.9999456323581017,0.0,0.0,0.0,0.0,0.0,0.0,0.0,0.0,0.0,0.009052487090229988,-0.009293321520090103,0.00041052140295505524,0.01,0.0,0.0,0.0,0.01,0.0,0.0,0.0,0.01,0.20857465267181396,-0.02404284104704857,9.584726333618164,0.01,0.0,0.0,0.0,0.01,0.0,0.0,0.0,0.01
1648214155.2547367,7056,1648214155,254457822,fufi_imu_link,-0.004855812923418729,-0.009302873127286648,0.0014514445848335944,0.9999438838960153,0.0,0.0,0.0,0.0,0.0,0.0,0.0,0.0,0.0,-0.017751291394233704,-0.0008623949252068996,0.00532669760286808,0.01,0.0,0.0,0.0,0.01,0.0,0.0,0.0,0.01,0.20883344113826752,0.04974235221743584,9.555668830871582,0.01,0.0,0.0,0.0,0.01,0.0,0.0,0.0,0.01
1648214155.2635093,7057,1648214155,263242987,fufi_imu_link,-0.004810208874240112,-0.00934253993969146,0.0014796713484333058,0.9999436931201487,0.0,0.0,0.0,0.0,0.0,0.0,0.0,0.0,0.0,0.008505948819220066,-0.009769737720489502,0.006314370781183243,0.01,0.0,0.0,0.0,0.01,0.0,0.0,0.0,0.01,0.16638797521591187,-0.05991847813129425,9.528726577758789,0.01,0.0,0.0,0.0,0.01,0.0,0.0,0.0,0.01
1648214155.2743576,7058,1648214155,274056396,fufi_imu_link,-0.004834481845294229,-0.009378221365574263,0.0015266220301802555,0.9999431714725007,0.0,0.0,0.0,0.0,0.0,0.0,0.0,0.0,0.0,-0.011553939431905746,-0.009996585547924042,0.008794624358415604,0.01,0.0,0.0,0.0,0.01,0.0,0.0,0.0,0.01,0.10722890496253967,0.05273127555847168,9.316020011901855,0.01,0.0,0.0,0.0,0.01,0.0,0.0,0.0,0.01
1648214155.2920365,7059,1648214155,291783364,fufi_imu_link,-0.0047771292119481645,-0.009524900458176977,0.001606705788838045,0.9999419352163716,0.0,0.0,0.0,0.0,0.0,0.0,0.0,0.0,0.0,0.0027064380701631308,-0.020586876198649406,0.008928053081035614,0.01,0.0,0.0,0.0,0.01,0.0,0.0,0.0,0.01,0.047808315604925156,0.037456728518009186,9.598504066467285,0.01,0.0,0.0,0.0,0.01,0.0,0.0,0.0,0.01
1648214155.3009589,7060,1648214155,300672567,fufi_imu_link,-0.004777729074365111,-0.00952491903591981,0.0016518196564727673,0.9999418586668295,0.0,0.0,0.0,0.0,0.0,0.0,0.0,0.0,0.0,-0.0014645857736468315,-0.003709896234795451,0.010143052786588669,0.01,0.0,0.0,0.0,0.01,0.0,0.0,0.0,0.01,0.1226554736495018,-0.06895755976438522,9.761110305786133,0.01,0.0,0.0,0.0,0.01,0.0,0.0,0.0,0.01
1648214155.3295743,7061,1648214155,329170614,fufi_imu_link,-0.004937709299362035,-0.009296614489504347,0.0016766298961554378,0.9999431888352958,0.0,0.0,0.0,0.0,0.0,0.0,0.0,0.0,0.0,-0.012201797217130661,0.015470081940293312,0.0019380971789360046,0.01,0.0,0.0,0.0,0.01,0.0,0.0,0.0,0.01,0.14342129230499268,-0.03849338740110397,9.320108413696289,0.01,0.0,0.0,0.0,0.01,0.0,0.0,0.0,0.01
1648214155.3374841,7062,1648214155,337271625,fufi_imu_link,-0.00487346555895276,-0.009280252619709297,0.0016950542450626864,0.9999436249288589,0.0,0.0,0.0,0.0,0.0,0.0,0.0,0.0,0.0,0.013306532986462116,0.002109637949615717,0.0044505055993795395,0.01,0.0,0.0,0.0,0.01,0.0,0.0,0.0,0.01,0.1466362178325653,-0.05276854336261749,9.452606201171875,0.01,0.0,0.0,0.0,0.01,0.0,0.0,0.0,0.01
1648214155.366887,7063,1648214155,366598955,fufi_imu_link,-0.004624778181052743,-0.009331509040888577,0.0017117209082182698,0.9999443006374545,0.0,0.0,0.0,0.0,0.0,0.0,0.0,0.0,0.0,0.01813938282430172,-0.0064497701823711395,0.0009123198688030243,0.01,0.0,0.0,0.0,0.01,0.0,0.0,0.0,0.01,0.01546134427189827,-0.15609174966812134,9.666014671325684,0.01,0.0,0.0,0.0,0.01,0.0,0.0,0.0,0.01
1648214155.3938234,7064,1648214155,393528912,fufi_imu_link,-0.004612946652710535,-0.009406961987604172,0.0015313879131771773,0.9999439407488815,0.0,0.0,0.0,0.0,0.0,0.0,0.0,0.0,0.0,-0.00023872090969234705,-0.00604377593845129,-0.013412305153906345,0.01,0.0,0.0,0.0,0.01,0.0,0.0,0.0,0.01,0.14952905476093292,-0.03700319677591324,9.277107238769531,0.01,0.0,0.0,0.0,0.01,0.0,0.0,0.0,0.01
1648214155.4123137,7065,1648214155,411938868,fufi_imu_link,-0.0045985886177357365,-0.009449320322005206,0.0014352388240097132,0.9999437501268235,0.0,0.0,0.0,0.0,0.0,0.0,0.0,0.0,0.0,0.0021881782449781895,-0.005777273792773485,-0.0105057368054986,0.01,0.0,0.0,0.0,0.01,0.0,0.0,0.0,0.01,0.13921691477298737,-0.1151033416390419,9.659689903259277,0.01,0.0,0.0,0.0,0.01,0.0,0.0,0.0,0.01
1648214155.4788795,7066,1648214155,478485264,fufi_imu_link,-0.0048349202378675515,-0.009342452955364382,0.0016189811554244416,0.9999433589054375,0.0,0.0,0.0,0.0,0.0,0.0,0.0,0.0,0.0,-0.0076139275915920734,0.004780780058354139,0.005629492923617363,0.01,0.0,0.0,0.0,0.01,0.0,0.0,0.0,0.01,0.38758164644241333,-0.02122306637465954,9.768646240234375,0.01,0.0,0.0,0.0,0.01,0.0,0.0,0.0,0.01
1648214155.487032,7067,1648214155,486763357,fufi_imu_link,-0.004778321825536957,-0.009382922071212345,0.0016596828874720557,0.9999431853193712,0.0,0.0,0.0,0.0,0.0,0.0,0.0,0.0,0.0,0.01788959465920925,-0.0016146688722074032,0.009660016745328903,0.01,0.0,0.0,0.0,0.01,0.0,0.0,0.0,0.01,0.3085746765136719,-0.15670545399188995,9.54581356048584,0.01,0.0,0.0,0.0,0.01,0.0,0.0,0.0,0.01
1648214155.5340502,7068,1648214155,533737126,fufi_imu_link,-0.005086975911478339,-0.009395702594903728,0.0019819224034867897,0.9999409559731068,0.0,0.0,0.0,0.0,0.0,0.0,0.0,0.0,0.0,-0.013084293343126774,0.0004777461290359497,0.01385195180773735,0.01,0.0,0.0,0.0,0.01,0.0,0.0,0.0,0.01,0.28280338644981384,-0.09396965056657791,9.836359024047852,0.01,0.0,0.0,0.0,0.01,0.0,0.0,0.0,0.01
1648214155.553654,7069,1648214155,553372016,fufi_imu_link,-0.005155341624953311,-0.00934828298749441,0.002056083495035249,0.9999409005429157,0.0,0.0,0.0,0.0,0.0,0.0,0.0,0.0,0.0,-0.0068335081450641155,0.005615034606307745,0.0076509807258844376,0.01,0.0,0.0,0.0,0.01,0.0,0.0,0.0,0.01,0.21007579565048218,-0.10139698535203934,9.616848945617676,0.01,0.0,0.0,0.0,0.01,0.0,0.0,0.0,0.01
1648214155.609173,7070,1648214155,608903581,fufi_imu_link,-0.004553034586804386,-0.009978271652946819,0.0018431328596242606,0.9999381515034483,0.0,0.0,0.0,0.0,0.0,0.0,0.0,0.0,0.0,0.01943705417215824,-0.02289733476936817,-0.007949387654662132,0.01,0.0,0.0,0.0,0.01,0.0,0.0,0.0,0.01,0.1676330268383026,0.13702690601348877,9.475674629211426,0.01,0.0,0.0,0.0,0.01,0.0,0.0,0.0,0.01
1648214155.6365983,7071,1648214155,636276730,fufi_imu_link,-0.004677868500111809,-0.010037926967840284,0.0015374306835800476,0.99993749498425,0.0,0.0,0.0,0.0,0.0,0.0,0.0,0.0,0.0,-0.010998579673469067,-0.0052617453038692474,-0.022239796817302704,0.01,0.0,0.0,0.0,0.01,0.0,0.0,0.0,0.01,0.13616937398910522,-0.0038957353681325912,9.393030166625977,0.01,0.0,0.0,0.0,0.01,0.0,0.0,0.0,0.01
1648214155.674667,7072,1648214155,674337724,fufi_imu_link,-0.0046099880299009695,-0.010027253190908445,0.0012799588573268494,0.9999382800498904,0.0,0.0,0.0,0.0,0.0,0.0,0.0,0.0,0.0,0.0045329430140554905,-0.0007375329732894897,-0.013596553355455399,0.01,0.0,0.0,0.0,0.01,0.0,0.0,0.0,0.01,0.09376881271600723,-0.16886237263679504,9.598516464233398,0.01,0.0,0.0,0.0,0.01,0.0,0.0,0.0,0.01
1648214155.6839473,7073,1648214155,683604781,fufi_imu_link,-0.004711404214461768,-0.010017504587235666,0.0012536657918236441,0.9999379383713047,0.0,0.0,0.0,0.0,0.0,0.0,0.0,0.0,0.0,-0.014780853874981403,0.0014153462834656239,-0.0055953022092580795,0.01,0.0,0.0,0.0,0.01,0.0,0.0,0.0,0.01,0.18509596586227417,-0.2248157113790512,9.920363426208496,0.01,0.0,0.0,0.0,0.01,0.0,0.0,0.0,0.01
1648214155.7495196,7074,1648214155,749189214,fufi_imu_link,-0.0050083306583161335,-0.010278553747066961,0.0014023719021128323,0.9999336484537031,0.0,0.0,0.0,0.0,0.0,0.0,0.0,0.0,0.0,-0.009671228937804699,-0.00790389534085989,0.004601765424013138,0.01,0.0,0.0,0.0,0.01,0.0,0.0,0.0,0.01,0.20191961526870728,-0.014473524875938892,9.42162036895752,0.01,0.0,0.0,0.0,0.01,0.0,0.0,0.0,0.01
1648214155.7569444,7075,1648214155,756660882,fufi_imu_link,-0.004976949759180087,-0.010300922405123984,0.0014215011187537294,0.9999335479436959,0.0,0.0,0.0,0.0,0.0,0.0,0.0,0.0,0.0,0.005880577955394983,-0.008812441490590572,0.005028635263442993,0.01,0.0,0.0,0.0,0.01,0.0,0.0,0.0,0.01,0.16592606902122498,-0.062280166894197464,10.089519500732422,0.01,0.0,0.0,0.0,0.01,0.0,0.0,0.0,0.01
1648214155.8048465,7076,1648214155,804490760,fufi_imu_link,-0.004933021955734455,-0.01020893538370552,0.001475596296865163,0.9999346306375654,0.0,0.0,0.0,0.0,0.0,0.0,0.0,0.0,0.0,0.0004264969611540437,0.0050031631253659725,0.0023031290620565414,0.01,0.0,0.0,0.0,0.01,0.0,0.0,0.0,0.01,0.2919520139694214,0.035248443484306335,9.25185775756836,0.01,0.0,0.0,0.0,0.01,0.0,0.0,0.0,0.01
1648214155.813483,7077,1648214155,813220548,fufi_imu_link,-0.0049252338122500695,-0.010206992028711597,0.0014871843980685691,0.9999346717001999,0.0,0.0,0.0,0.0,0.0,0.0,0.0,0.0,0.0,-0.004786232020705938,0.0066281589679419994,0.002834578976035118,0.01,0.0,0.0,0.0,0.01,0.0,0.0,0.0,0.01,0.301893949508667,0.015374710783362389,9.682470321655273,0.01,0.0,0.0,0.0,0.01,0.0,0.0,0.0,0.01
1648214155.8242412,7078,1648214155,823919867,fufi_imu_link,-0.004856721823039902,-0.01021707481529791,0.0014963394437220662,0.9999348901821666,0.0,0.0,0.0,0.0,0.0,0.0,0.0,0.0,0.0,0.014769663102924824,-0.0012702224776148796,0.0015376713126897812,0.01,0.0,0.0,0.0,0.01,0.0,0.0,0.0,0.01,0.21092072129249573,-0.13452553749084473,9.679676055908203,0.01,0.0,0.0,0.0,0.01,0.0,0.0,0.0,0.01
1648214155.842076,7079,1648214155,841845651,fufi_imu_link,-0.004612442793756251,-0.01029351623921669,0.0014878930874737152,0.9999352754398995,0.0,0.0,0.0,0.0,0.0,0.0,0.0,0.0,0.0,0.028039464727044106,-0.009938246570527554,-0.0012918971478939056,0.01,0.0,0.0,0.0,0.01,0.0,0.0,0.0,0.01,0.15248529613018036,-0.11815888434648514,9.729607582092285,0.01,0.0,0.0,0.0,0.01,0.0,0.0,0.0,0.01
1648214155.8794148,7080,1648214155,879106342,fufi_imu_link,-0.004684176353455774,-0.010299693461779056,0.0014287051915337194,0.9999349646891835,0.0,0.0,0.0,0.0,0.0,0.0,0.0,0.0,0.0,-0.00582457147538662,0.002029642928391695,-0.003076832741498947,0.01,0.0,0.0,0.0,0.01,0.0,0.0,0.0,0.01,0.3644559383392334,0.04808204621076584,9.600244522094727,0.01,0.0,0.0,0.0,0.01,0.0,0.0,0.0,0.01
1648214155.8876064,7081,1648214155,887280470,fufi_imu_link,-0.004644623893739058,-0.010337804305836364,0.001428339680560677,0.9999347564300267,0.0,0.0,0.0,0.0,0.0,0.0,0.0,0.0,0.0,-0.0003288673178758472,-0.004996906034648418,1.4027580618858337e-05,0.01,0.0,0.0,0.0,0.01,0.0,0.0,0.0,0.01,0.2665492296218872,0.06672170013189316,9.61151123046875,0.01,0.0,0.0,0.0,0.01,0.0,0.0,0.0,0.01
1648214155.9169233,7082,1648214155,916628962,fufi_imu_link,-0.004506220451055314,-0.010532455788361969,0.001490516630165862,0.9999332676296394,0.0,0.0,0.0,0.0,0.0,0.0,0.0,0.0,0.0,0.008780163712799549,-0.0130030307918787,0.004094701260328293,0.01,0.0,0.0,0.0,0.01,0.0,0.0,0.0,0.01,0.21547827124595642,-0.04823530465364456,9.458891868591309,0.01,0.0,0.0,0.0,0.01,0.0,0.0,0.0,0.01
1648214155.9438543,7083,1648214155,943542465,fufi_imu_link,-0.00454448031950556,-0.010516811623273836,0.001425659279660256,0.9999333537128985,0.0,0.0,0.0,0.0,0.0,0.0,0.0,0.0,0.0,0.005301278084516525,-0.004692662041634321,-0.0050099994987249374,0.01,0.0,0.0,0.0,0.01,0.0,0.0,0.0,0.01,-0.09976724535226822,-0.5035507082939148,9.489531517028809,0.01,0.0,0.0,0.0,0.01,0.0,0.0,0.0,0.01
1648214155.9623861,7084,1648214155,962032273,fufi_imu_link,-0.004596205699589243,-0.01057796395109197,0.0013338475197393017,0.9999325989398538,0.0,0.0,0.0,0.0,0.0,0.0,0.0,0.0,0.0,0.003719676285982132,-0.004755224101245403,-0.010083749890327454,0.01,0.0,0.0,0.0,0.01,0.0,0.0,0.0,0.01,0.2666187286376953,-0.4215136170387268,9.58755111694336,0.01,0.0,0.0,0.0,0.01,0.0,0.0,0.0,0.01
1648214156.0289388,7085,1648214156,28509978,fufi_imu_link,-0.0044770253167997305,-0.010268097862906495,0.0011720676594723714,0.999936572322461,0.0,0.0,0.0,0.0,0.0,0.0,0.0,0.0,0.0,0.002888736082240939,0.01039288192987442,-0.004838813096284866,0.01,0.0,0.0,0.0,0.01,0.0,0.0,0.0,0.01,0.32170170545578003,-0.002468360122293234,9.335576057434082,0.01,0.0,0.0,0.0,0.01,0.0,0.0,0.0,0.01
1648214156.0372221,7086,1648214156,36868795,fufi_imu_link,-0.004455575980640929,-0.010253554421539964,0.001174339630449307,0.9999368146992277,0.0,0.0,0.0,0.0,0.0,0.0,0.0,0.0,0.0,0.004634514916688204,0.009836108423769474,0.0005738101899623871,0.01,0.0,0.0,0.0,0.01,0.0,0.0,0.0,0.01,0.2947319746017456,-0.07670488208532333,9.478433609008789,0.01,0.0,0.0,0.0,0.01,0.0,0.0,0.0,0.01
1648214156.0841274,7087,1648214156,83794654,fufi_imu_link,-0.004268992932623804,-0.010284851478173906,0.0012834215361272043,0.9999371732056839,0.0,0.0,0.0,0.0,0.0,0.0,0.0,0.0,0.0,0.007861110381782055,-0.0007543149404227734,0.004569465294480324,0.01,0.0,0.0,0.0,0.01,0.0,0.0,0.0,0.01,0.24959242343902588,-0.06928073614835739,9.505803108215332,0.01,0.0,0.0,0.0,0.01,0.0,0.0,0.0,0.01
1648214156.1036801,7088,1648214156,103328693,fufi_imu_link,-0.004304888136257437,-0.010317281829185558,0.001333223632855836,0.9999366200657601,0.0,0.0,0.0,0.0,0.0,0.0,0.0,0.0,0.0,-0.006104766856878996,0.0017623435705900192,0.005217285826802254,0.01,0.0,0.0,0.0,0.01,0.0,0.0,0.0,0.01,0.3864147961139679,0.009563378989696503,9.547441482543945,0.01,0.0,0.0,0.0,0.01,0.0,0.0,0.0,0.01
1648214156.1118188,7089,1648214156,111553919,fufi_imu_link,-0.004217851738297507,-0.010387316029989142,0.0013838937553452728,0.9999361970798342,0.0,0.0,0.0,0.0,0.0,0.0,0.0,0.0,0.0,0.014818031340837479,-0.0005955025553703308,0.012303058058023453,0.01,0.0,0.0,0.0,0.01,0.0,0.0,0.0,0.01,0.4602521061897278,0.020208152011036873,9.62182331085205,0.01,0.0,0.0,0.0,0.01,0.0,0.0,0.0,0.01
1648214156.1589742,7090,1648214156,158539169,fufi_imu_link,-0.00493585569293298,-0.012064443376072086,0.0016447540165568611,0.9999136869344418,0.0,0.0,0.0,0.0,0.0,0.0,0.0,0.0,0.0,-0.029350219294428825,-0.052145179361104965,0.011270958930253983,0.01,0.0,0.0,0.0,0.01,0.0,0.0,0.0,0.01,2.051201820373535,-0.21139326691627502,9.893621444702148,0.01,0.0,0.0,0.0,0.01,0.0,0.0,0.0,0.01
1648214156.1591892,7091,1648214156,158898027,fufi_imu_link,-0.00496265658688096,-0.012600084023543907,0.0016440661656620767,0.9999069491550918,0.0,0.0,0.0,0.0,0.0,0.0,0.0,0.0,0.0,-0.018245618790388107,-0.048851002007722855,0.009128686040639877,0.01,0.0,0.0,0.0,0.01,0.0,0.0,0.0,0.01,2.393068790435791,-0.19888843595981598,9.981414794921875,0.01,0.0,0.0,0.0,0.01,0.0,0.0,0.0,0.01
1648214156.1793816,7092,1648214156,178419852,fufi_imu_link,-0.0052141945646100515,-0.013386023777626276,0.0017103575139950304,0.9998953451335003,0.0,0.0,0.0,0.0,0.0,0.0,0.0,0.0,0.0,-0.0243238415569067,-0.01797191984951496,0.007318511605262756,0.01,0.0,0.0,0.0,0.01,0.0,0.0,0.0,0.01,2.5316109657287598,-0.15058603882789612,9.133804321289062,0.01,0.0,0.0,0.0,0.01,0.0,0.0,0.0,0.01
1648214156.186593,7093,1648214156,186318125,fufi_imu_link,-0.005319814305274137,-0.014021166706523678,0.001704647322505477,0.999886093831418,0.0,0.0,0.0,0.0,0.0,0.0,0.0,0.0,0.0,-0.02584828808903694,-0.0031916778534650803,-0.0002871863543987274,0.01,0.0,0.0,0.0,0.01,0.0,0.0,0.0,0.01,2.623049259185791,-0.11686421185731888,9.24692440032959,0.01,0.0,0.0,0.0,0.01,0.0,0.0,0.0,0.01
1648214156.2336316,7094,1648214156,233349608,fufi_imu_link,-0.005221481411725641,-0.01465066325583936,0.0013321364359476404,0.9998781523818525,0.0,0.0,0.0,0.0,0.0,0.0,0.0,0.0,0.0,0.004649256821721792,0.0015212823636829853,-0.0157619658857584,0.01,0.0,0.0,0.0,0.01,0.0,0.0,0.0,0.01,2.949971914291382,-0.1707756519317627,9.736518859863281,0.01,0.0,0.0,0.0,0.01,0.0,0.0,0.0,0.01
1648214156.234173,7095,1648214156,233888434,fufi_imu_link,-0.005262159822869857,-0.01531214894143693,0.0013248955229290787,0.9998680375032734,0.0,0.0,0.0,0.0,0.0,0.0,0.0,0.0,0.0,-0.003587492974475026,-0.0018708975985646248,-0.01613559201359749,0.01,0.0,0.0,0.0,0.01,0.0,0.0,0.0,0.01,2.9290082454681396,-0.26437652111053467,9.655208587646484,0.01,0.0,0.0,0.0,0.01,0.0,0.0,0.0,0.01
1648214156.299511,7096,1648214156,299141971,fufi_imu_link,-0.004731587916048331,-0.015322432767337303,0.0016734076522054663,0.9998700089695224,0.0,0.0,0.0,0.0,0.0,0.0,0.0,0.0,0.0,0.016362331807613373,0.010937871411442757,0.010545291006565094,0.01,0.0,0.0,0.0,0.01,0.0,0.0,0.0,0.01,1.7501085996627808,-0.08534235507249832,9.73355484008789,0.01,0.0,0.0,0.0,0.01,0.0,0.0,0.0,0.01
1648214156.3087022,7097,1648214156,308384775,fufi_imu_link,-0.0046850142251572,-0.015616533938432379,0.0017315414030691487,0.9998655791024259,0.0,0.0,0.0,0.0,0.0,0.0,0.0,0.0,0.0,0.009528796188533306,0.00048303743824362755,0.012751366943120956,0.01,0.0,0.0,0.0,0.01,0.0,0.0,0.0,0.01,1.4687979221343994,-0.08066057413816452,9.758708000183105,0.01,0.0,0.0,0.0,0.01,0.0,0.0,0.0,0.01
1648214156.3548348,7098,1648214156,354501971,fufi_imu_link,-0.004489405488724121,-0.015434681195476191,0.0022103215297613796,0.9998683565017382,0.0,0.0,0.0,0.0,0.0,0.0,0.0,0.0,0.0,0.0074442909099161625,0.010464128106832504,0.020732667297124863,0.01,0.0,0.0,0.0,0.01,0.0,0.0,0.0,0.01,0.5402260422706604,0.034907903522253036,9.717781066894531,0.01,0.0,0.0,0.0,0.01,0.0,0.0,0.0,0.01
1648214156.3742583,7099,1648214156,373956392,fufi_imu_link,-0.004183000795299393,-0.015173643242178342,0.0023862760764386507,0.9998732763413536,0.0,0.0,0.0,0.0,0.0,0.0,0.0,0.0,0.0,0.032628871500492096,0.012491915374994278,0.01757127046585083,0.01,0.0,0.0,0.0,0.01,0.0,0.0,0.0,0.01,-0.2317465841770172,-0.10811994969844818,9.400307655334473,0.01,0.0,0.0,0.0,0.01,0.0,0.0,0.0,0.01
1648214156.3921616,7100,1648214156,391867457,fufi_imu_link,-0.004010801847432698,-0.015083293617503673,0.0025604125339091415,0.999874918182192,0.0,0.0,0.0,0.0,0.0,0.0,0.0,0.0,0.0,0.019461214542388916,0.009126484394073486,0.019187740981578827,0.01,0.0,0.0,0.0,0.01,0.0,0.0,0.0,0.01,0.25875788927078247,-0.07427657395601273,9.522658348083496,0.01,0.0,0.0,0.0,0.01,0.0,0.0,0.0,0.01
1648214156.4295154,7101,1648214156,429239549,fufi_imu_link,-0.0040365121101321386,-0.01444751440490161,0.0023800951358027723,0.9998846488693831,0.0,0.0,0.0,0.0,0.0,0.0,0.0,0.0,0.0,-0.0001870623091235757,0.014973985031247139,-0.009684626013040543,0.01,0.0,0.0,0.0,0.01,0.0,0.0,0.0,0.01,-1.0621469020843506,-0.16311286389827728,9.33582878112793,0.01,0.0,0.0,0.0,0.01,0.0,0.0,0.0,0.01
1648214156.4375174,7102,1648214156,437309391,fufi_imu_link,-0.0039559066441315766,-0.014063257515495716,0.0023291469922818732,0.9998905693449479,0.0,0.0,0.0,0.0,0.0,0.0,0.0,0.0,0.0,0.003450480056926608,0.011011803522706032,-0.012739771977066994,0.01,0.0,0.0,0.0,0.01,0.0,0.0,0.0,0.01,-1.0417215824127197,0.1812293827533722,9.672727584838867,0.01,0.0,0.0,0.0,0.01,0.0,0.0,0.0,0.01
1648214156.4670353,7103,1648214156,466698164,fufi_imu_link,-0.004006920330314041,-0.013671731711563525,0.0020383564342448886,0.9998964313590286,0.0,0.0,0.0,0.0,0.0,0.0,0.0,0.0,0.0,-0.003906509838998318,-0.00030029937624931335,-0.019844621419906616,0.01,0.0,0.0,0.0,0.01,0.0,0.0,0.0,0.01,-1.2386863231658936,-0.0641496405005455,9.405097007751465,0.01,0.0,0.0,0.0,0.01,0.0,0.0,0.0,0.01
1648214156.4938319,7104,1648214156,493584333,fufi_imu_link,-0.00399955081043976,-0.013263490207031927,0.0019394014939977057,0.9999021562846476,0.0,0.0,0.0,0.0,0.0,0.0,0.0,0.0,0.0,0.00043055624701082706,0.003111464437097311,-0.007464783266186714,0.01,0.0,0.0,0.0,0.01,0.0,0.0,0.0,0.01,-1.1475480794906616,-0.07288706302642822,9.547074317932129,0.01,0.0,0.0,0.0,0.01,0.0,0.0,0.0,0.01
1648214156.5123236,7105,1648214156,512077646,fufi_imu_link,-0.004099468750412777,-0.012929131684819274,0.0019133840922980058,0.9999061810345792,0.0,0.0,0.0,0.0,0.0,0.0,0.0,0.0,0.0,-0.010372434742748737,-0.00042576389387249947,-0.0028352662920951843,0.01,0.0,0.0,0.0,0.01,0.0,0.0,0.0,0.01,-1.0577330589294434,-0.09395705908536911,9.662171363830566,0.01,0.0,0.0,0.0,0.01,0.0,0.0,0.0,0.01
1648214156.578867,7106,1648214156,578533743,fufi_imu_link,-0.0042284993315102265,-0.012883030662548674,0.002312843558358136,0.9999053945594183,0.0,0.0,0.0,0.0,0.0,0.0,0.0,0.0,0.0,-0.003095232415944338,-0.002584742847830057,0.012027371674776077,0.01,0.0,0.0,0.0,0.01,0.0,0.0,0.0,0.01,-0.25595179200172424,-0.16410265862941742,9.751420021057129,0.01,0.0,0.0,0.0,0.01,0.0,0.0,0.0,0.01
1648214156.5871792,7107,1648214156,586830196,fufi_imu_link,-0.004247092238637298,-0.012806519870019198,0.0023461093975529505,0.9999062211162755,0.0,0.0,0.0,0.0,0.0,0.0,0.0,0.0,0.0,0.001947164535522461,-0.0034659565426409245,0.007805634289979935,0.01,0.0,0.0,0.0,0.01,0.0,0.0,0.0,0.01,-0.10289925336837769,-0.1846189945936203,9.751977920532227,0.01,0.0,0.0,0.0,0.01,0.0,0.0,0.0,0.01
1648214156.6256883,7108,1648214156,625367050,fufi_imu_link,-0.004239769182067473,-0.012971444307636642,0.0023120669845193105,0.9999042055797726,0.0,0.0,0.0,0.0,0.0,0.0,0.0,0.0,0.0,7.377399015240371e-05,-0.00815236009657383,-0.0017973482608795166,0.01,0.0,0.0,0.0,0.01,0.0,0.0,0.0,0.01,0.27544113993644714,-0.061935584992170334,9.495635986328125,0.01,0.0,0.0,0.0,0.01,0.0,0.0,0.0,0.01
1648214156.653792,7109,1648214156,653449016,fufi_imu_link,-0.004339116302485232,-0.013100679220114741,0.002293498471916212,0.9999021372806663,0.0,0.0,0.0,0.0,0.0,0.0,0.0,0.0,0.0,-0.007560553029179573,-0.0037150480784475803,-0.0012103356420993805,0.01,0.0,0.0,0.0,0.01,0.0,0.0,0.0,0.01,0.543991208076477,-0.0597529411315918,9.57657527923584,0.01,0.0,0.0,0.0,0.01,0.0,0.0,0.0,0.01
1648214156.661885,7110,1648214156,661579109,fufi_imu_link,-0.004345380161659336,-0.013191161343336609,0.0023207711214847148,0.9999008575629218,0.0,0.0,0.0,0.0,0.0,0.0,0.0,0.0,0.0,-0.0011876419885084033,-0.006310631521046162,0.006764132529497147,0.01,0.0,0.0,0.0,0.01,0.0,0.0,0.0,0.01,0.5083804130554199,-0.09017698466777802,9.727828979492188,0.01,0.0,0.0,0.0,0.01,0.0,0.0,0.0,0.01
1648214156.7089865,7111,1648214156,708602646,fufi_imu_link,-0.004162377534431197,-0.013434969821233399,0.0024401826231895156,0.9998981056627365,0.0,0.0,0.0,0.0,0.0,0.0,0.0,0.0,0.0,0.007525100838392973,-0.003768652444705367,0.004995759576559067,0.01,0.0,0.0,0.0,0.01,0.0,0.0,0.0,0.01,0.8448309898376465,-0.05283768102526665,9.465814590454102,0.01,0.0,0.0,0.0,0.01,0.0,0.0,0.0,0.01
1648214156.7091851,7112,1648214156,708991251,fufi_imu_link,-0.0041860480915275914,-0.013577211464110004,0.0024407810413033656,0.99989608405981,0.0,0.0,0.0,0.0,0.0,0.0,0.0,0.0,0.0,-0.004027463495731354,0.0009872671216726303,0.004634188488125801,0.01,0.0,0.0,0.0,0.01,0.0,0.0,0.0,0.01,0.805102527141571,-0.16981036961078644,9.582072257995605,0.01,0.0,0.0,0.0,0.01,0.0,0.0,0.0,0.01
1648214156.7284,7113,1648214156,728071992,fufi_imu_link,-0.004182671851001501,-0.013714485443790846,0.0024398464759914002,0.9998942270532282,0.0,0.0,0.0,0.0,0.0,0.0,0.0,0.0,0.0,0.0027464930899441242,-0.00046411482617259026,-0.00011128932237625122,0.01,0.0,0.0,0.0,0.01,0.0,0.0,0.0,0.01,0.7919665575027466,-0.17411406338214874,9.840818405151367,0.01,0.0,0.0,0.0,0.01,0.0,0.0,0.0,0.01
1648214156.7366586,7114,1648214156,736364207,fufi_imu_link,-0.004207341014926209,-0.013880011640278994,0.0024209886037018934,0.9998918853419256,0.0,0.0,0.0,0.0,0.0,0.0,0.0,0.0,0.0,-0.002868550131097436,-0.0013073827140033245,-0.004394881427288055,0.01,0.0,0.0,0.0,0.01,0.0,0.0,0.0,0.01,0.8731486201286316,-0.13196195662021637,9.523004531860352,0.01,0.0,0.0,0.0,0.01,0.0,0.0,0.0,0.01
1648214156.7890208,7115,1648214156,788063182,fufi_imu_link,-0.00412243576756298,-0.013899416419874576,0.002274007496286592,0.9998923145201368,0.0,0.0,0.0,0.0,0.0,0.0,0.0,0.0,0.0,0.003258609678596258,0.004319882020354271,-0.005693294107913971,0.01,0.0,0.0,0.0,0.01,0.0,0.0,0.0,0.01,0.7645678520202637,-0.0848236232995987,9.56186294555664,0.01,0.0,0.0,0.0,0.01,0.0,0.0,0.0,0.01
1648214156.7897687,7116,1648214156,789518307,fufi_imu_link,-0.004117364645393107,-0.013993121163633169,0.002270226621443098,0.9998910370333179,0.0,0.0,0.0,0.0,0.0,0.0,0.0,0.0,0.0,0.001335986889898777,0.006542681250721216,-0.004549100995063782,0.01,0.0,0.0,0.0,0.01,0.0,0.0,0.0,0.01,0.6423085927963257,-0.06467941403388977,9.54885482788086,0.01,0.0,0.0,0.0,0.01,0.0,0.0,0.0,0.01
1648214156.849522,7117,1648214156,849168841,fufi_imu_link,-0.004095316031029226,-0.013980184461898006,0.002299512032428442,0.9998912416225227,0.0,0.0,0.0,0.0,0.0,0.0,0.0,0.0,0.0,0.0002482646959833801,0.0004294347018003464,0.000987369567155838,0.01,0.0,0.0,0.0,0.01,0.0,0.0,0.0,0.01,0.2668294906616211,-0.021468697115778923,9.540985107421875,0.01,0.0,0.0,0.0,0.01,0.0,0.0,0.0,0.01
1648214156.8587673,7118,1648214156,858454390,fufi_imu_link,-0.004054875020254607,-0.01396150228191288,0.002311646958674311,0.9998916394944708,0.0,0.0,0.0,0.0,0.0,0.0,0.0,0.0,0.0,0.0028631952591240406,0.0038021886721253395,0.002670958638191223,0.01,0.0,0.0,0.0,0.01,0.0,0.0,0.0,0.01,0.2672341465950012,0.026376798748970032,9.696961402893066,0.01,0.0,0.0,0.0,0.01,0.0,0.0,0.0,0.01
1648214156.9050257,7119,1648214156,904538951,fufi_imu_link,-0.004011623194621985,-0.01397500447262846,0.002456654303366444,0.9998912795794193,0.0,0.0,0.0,0.0,0.0,0.0,0.0,0.0,0.0,0.0018303883261978626,-0.0024554654955863953,0.00625261664390564,0.01,0.0,0.0,0.0,0.01,0.0,0.0,0.0,0.01,0.1061716228723526,-0.0659630075097084,9.598101615905762,0.01,0.0,0.0,0.0,0.01,0.0,0.0,0.0,0.01
1648214156.9243228,7120,1648214156,924007613,fufi_imu_link,-0.004037863031149498,-0.01387454408360604,0.002516516143411474,0.9998924241312731,0.0,0.0,0.0,0.0,0.0,0.0,0.0,0.0,0.0,-0.0037058922462165356,0.003954476676881313,0.006207361817359924,0.01,0.0,0.0,0.0,0.01,0.0,0.0,0.0,0.01,0.029986180365085602,-0.03632394224405289,9.567024230957031,0.01,0.0,0.0,0.0,0.01,0.0,0.0,0.0,0.01
1648214156.942206,7121,1648214156,941922889,fufi_imu_link,-0.003946067540792861,-0.013773864036827855,0.0025482918509405934,0.9998941021073686,0.0,0.0,0.0,0.0,0.0,0.0,0.0,0.0,0.0,0.010258552618324757,0.0021660872735083103,0.003378724679350853,0.01,0.0,0.0,0.0,0.01,0.0,0.0,0.0,0.01,-0.04511397331953049,-0.07441552728414536,9.63031005859375,0.01,0.0,0.0,0.0,0.01,0.0,0.0,0.0,0.01
1648214156.9796102,7122,1648214156,979273171,fufi_imu_link,-0.004015679117931241,-0.013751710026557515,0.0025174910956482885,0.9998942079195933,0.0,0.0,0.0,0.0,0.0,0.0,0.0,0.0,0.0,-0.003026616293936968,-0.003620828501880169,-0.0016516707837581635,0.01,0.0,0.0,0.0,0.01,0.0,0.0,0.0,0.01,-0.08101358264684677,-0.13026845455169678,9.678996086120605,0.01,0.0,0.0,0.0,0.01,0.0,0.0,0.0,0.01
1648214156.9876149,7123,1648214156,987353394,fufi_imu_link,-0.004050052729205577,-0.013664149863738373,0.0025185978092916333,0.9998952668887212,0.0,0.0,0.0,0.0,0.0,0.0,0.0,0.0,0.0,-0.0054909768514335155,-0.0006852834485471249,0.00021413713693618774,0.01,0.0,0.0,0.0,0.01,0.0,0.0,0.0,0.01,-0.083614781498909,-0.12449511885643005,9.63020133972168,0.01,0.0,0.0,0.0,0.01,0.0,0.0,0.0,0.01
1648214157.0169876,7124,1648214157,16695732,fufi_imu_link,-0.004070142467685109,-0.013610002526939063,0.002531409430890974,0.9998958914496062,0.0,0.0,0.0,0.0,0.0,0.0,0.0,0.0,0.0,-0.002148619620129466,-0.0013291665818542242,0.0008874218910932541,0.01,0.0,0.0,0.0,0.01,0.0,0.0,0.0,0.01,-0.02031254768371582,-0.03395919129252434,9.61003589630127,0.01,0.0,0.0,0.0,0.01,0.0,0.0,0.0,0.01
1648214157.043852,7125,1648214157,43517065,fufi_imu_link,-0.004179493076135769,-0.013556212494093448,0.002556194718240125,0.9998961080077291,0.0,0.0,0.0,0.0,0.0,0.0,0.0,0.0,0.0,-0.007331112865358591,0.0014759683981537819,0.0019326824694871902,0.01,0.0,0.0,0.0,0.01,0.0,0.0,0.0,0.01,0.13067322969436646,-0.12233873456716537,9.685159683227539,0.01,0.0,0.0,0.0,0.01,0.0,0.0,0.0,0.01
1648214157.054528,7126,1648214157,54178579,fufi_imu_link,-0.004247832940040259,-0.013556101896052436,0.002588380097000877,0.9998957387173779,0.0,0.0,0.0,0.0,0.0,0.0,0.0,0.0,0.0,-0.0032030860893428326,-0.0032627962063997984,0.005924779921770096,0.01,0.0,0.0,0.0,0.01,0.0,0.0,0.0,0.01,0.19729924201965332,-0.28269901871681213,9.810770034790039,0.01,0.0,0.0,0.0,0.01,0.0,0.0,0.0,0.01
1648214157.0625691,7127,1648214157,62190615,fufi_imu_link,-0.004343731461942831,-0.013491918624703506,0.002592038778577906,0.9998961853431492,0.0,0.0,0.0,0.0,0.0,0.0,0.0,0.0,0.0,0.007172796875238419,-0.006302311085164547,0.00027203746140003204,0.01,0.0,0.0,0.0,0.01,0.0,0.0,0.0,0.01,-0.08537022024393082,-0.5676578879356384,9.72746753692627,0.01,0.0,0.0,0.0,0.01,0.0,0.0,0.0,0.01
1648214157.0926287,7128,1648214157,91523135,fufi_imu_link,-0.0044424697657144945,-0.013487386555931255,0.002478346526056409,0.9998961009348765,0.0,0.0,0.0,0.0,0.0,0.0,0.0,0.0,0.0,0.00016888475511223078,-0.002454381203278899,-0.007872765883803368,0.01,0.0,0.0,0.0,0.01,0.0,0.0,0.0,0.01,0.1000981330871582,-0.475114107131958,9.52102279663086,0.01,0.0,0.0,0.0,0.01,0.0,0.0,0.0,0.01
1648214157.1290708,7129,1648214157,128586024,fufi_imu_link,-0.004560138143276526,-0.013594857028931946,0.0021882672240693306,0.9998947927102296,0.0,0.0,0.0,0.0,0.0,0.0,0.0,0.0,0.0,0.0012283346150070429,-0.0067586093209683895,-0.015812374651432037,0.01,0.0,0.0,0.0,0.01,0.0,0.0,0.0,0.01,0.18596471846103668,-0.6385884284973145,9.548888206481934,0.01,0.0,0.0,0.0,0.01,0.0,0.0,0.0,0.01
1648214157.1373403,7130,1648214157,136969171,fufi_imu_link,-0.004732058464504337,-0.013585880726743077,0.002139055745324626,0.9998942223595882,0.0,0.0,0.0,0.0,0.0,0.0,0.0,0.0,0.0,0.0003953106643166393,-0.00568604189902544,-0.012375415302813053,0.01,0.0,0.0,0.0,0.01,0.0,0.0,0.0,0.01,0.13352833688259125,-0.7634408473968506,9.655216217041016,0.01,0.0,0.0,0.0,0.01,0.0,0.0,0.0,0.01
1648214157.1753025,7131,1648214157,175034175,fufi_imu_link,-0.005091430778634836,-0.01370144613665721,0.0021192486416482755,0.9998909222968201,0.0,0.0,0.0,0.0,0.0,0.0,0.0,0.0,0.0,-0.00597362220287323,-0.006701269652694464,-0.0011718571186065674,0.01,0.0,0.0,0.0,0.01,0.0,0.0,0.0,0.01,0.21344253420829773,-1.042335033416748,9.585041999816895,0.01,0.0,0.0,0.0,0.01,0.0,0.0,0.0,0.01
1648214157.203799,7132,1648214157,203477756,fufi_imu_link,-0.005474566016353249,-0.013666066982310689,0.0020337615818107634,0.9998895596784657,0.0,0.0,0.0,0.0,0.0,0.0,0.0,0.0,0.0,-0.007093002088367939,0.002043831627815962,-0.006178924813866615,0.01,0.0,0.0,0.0,0.01,0.0,0.0,0.0,0.01,0.22897176444530487,-1.1731091737747192,9.419313430786133,0.01,0.0,0.0,0.0,0.01,0.0,0.0,0.0,0.01
1648214157.212037,7133,1648214157,211833231,fufi_imu_link,-0.005696899544102211,-0.013654123870487226,0.0020249775585123382,0.9998884986351235,0.0,0.0,0.0,0.0,0.0,0.0,0.0,0.0,0.0,0.005916507914662361,7.811840623617172e-05,-0.003006691113114357,0.01,0.0,0.0,0.0,0.01,0.0,0.0,0.0,0.01,0.21490278840065002,-1.056264042854309,9.571528434753418,0.01,0.0,0.0,0.0,0.01,0.0,0.0,0.0,0.01
1648214157.259173,7134,1648214157,258921293,fufi_imu_link,-0.00603937988740745,-0.013723572609237143,0.00212585273797155,0.9998853285230017,0.0,0.0,0.0,0.0,0.0,0.0,0.0,0.0,0.0,-0.004564489703625441,-0.0028532366268336773,0.004195570945739746,0.01,0.0,0.0,0.0,0.01,0.0,0.0,0.0,0.01,0.2752402722835541,-1.0278384685516357,9.726679801940918,0.01,0.0,0.0,0.0,0.01,0.0,0.0,0.0,0.01
1648214157.2784274,7135,1648214157,278112363,fufi_imu_link,-0.006360954537020496,-0.013796638305488714,0.0021953574959866105,0.9998821787762349,0.0,0.0,0.0,0.0,0.0,0.0,0.0,0.0,0.0,-0.0070415581576526165,-0.004730106797069311,0.006967203691601753,0.01,0.0,0.0,0.0,0.01,0.0,0.0,0.0,0.01,0.3711696267127991,-1.0992119312286377,9.6250581741333,0.01,0.0,0.0,0.0,0.01,0.0,0.0,0.0,0.01
1648214157.286976,7136,1648214157,286451348,fufi_imu_link,-0.006604576955745122,-0.01385326422715332,0.0022467441329077596,0.9998797021513587,0.0,0.0,0.0,0.0,0.0,0.0,0.0,0.0,0.0,-0.0077444748021662235,-0.009366658516228199,0.011701878160238266,0.01,0.0,0.0,0.0,0.01,0.0,0.0,0.0,0.01,0.33031049370765686,-0.9303475618362427,9.535980224609375,0.01,0.0,0.0,0.0,0.01,0.0,0.0,0.0,0.01
1648214157.333707,7137,1648214157,333396966,fufi_imu_link,-0.006699057702677405,-0.01402575303166333,0.002685680417931687,0.9998755862598525,0.0,0.0,0.0,0.0,0.0,0.0,0.0,0.0,0.0,0.0017470578895881772,-0.0061314888298511505,0.01856892928481102,0.01,0.0,0.0,0.0,0.01,0.0,0.0,0.0,0.01,0.3838137090206146,-0.6190032362937927,9.47826099395752,0.01,0.0,0.0,0.0,0.01,0.0,0.0,0.0,0.01
1648214157.334028,7138,1648214157,333829777,fufi_imu_link,-0.00682021057546092,-0.014047776693934736,0.002690867887606105,0.9998744440816932,0.0,0.0,0.0,0.0,0.0,0.0,0.0,0.0,0.0,0.00425350246950984,-0.007183701265603304,0.016602985560894012,0.01,0.0,0.0,0.0,0.01,0.0,0.0,0.0,0.01,0.3442910313606262,-0.5949798822402954,9.529886245727539,0.01,0.0,0.0,0.0,0.01,0.0,0.0,0.0,0.01
1648214157.3995926,7139,1648214157,399271360,fufi_imu_link,-0.0070680598035696585,-0.013857488261330044,0.0024482119441051847,0.9998760017162013,0.0,0.0,0.0,0.0,0.0,0.0,0.0,0.0,0.0,-0.009861654601991177,0.0054305559024214745,-0.007214121520519257,0.01,0.0,0.0,0.0,0.01,0.0,0.0,0.0,0.01,0.2082635909318924,0.13847900927066803,9.578680992126465,0.01,0.0,0.0,0.0,0.01,0.0,0.0,0.0,0.01
1648214157.4088547,7140,1648214157,408519463,fufi_imu_link,-0.007102424358653639,-0.013801906263339526,0.002377565782522001,0.9998766974645812,0.0,0.0,0.0,0.0,0.0,0.0,0.0,0.0,0.0,-0.02715495601296425,0.007418083027005196,-0.01461578719317913,0.01,0.0,0.0,0.0,0.01,0.0,0.0,0.0,0.01,0.17580750584602356,0.20234471559524536,9.317678451538086,0.01,0.0,0.0,0.0,0.01,0.0,0.0,0.0,0.01
1648214157.4744303,7141,1648214157,474049947,fufi_imu_link,-0.006181524412295661,-0.013802539408253212,0.0013732613293698697,0.9998846897593469,0.0,0.0,0.0,0.0,0.0,0.0,0.0,0.0,0.0,0.022871505469083786,-0.00023939693346619606,-0.030908698216080666,0.01,0.0,0.0,0.0,0.01,0.0,0.0,0.0,0.01,0.21810591220855713,0.48543477058410645,9.630846977233887,0.01,0.0,0.0,0.0,0.01,0.0,0.0,0.0,0.01
1648214157.492368,7142,1648214157,491959114,fufi_imu_link,-0.006076536387561685,-0.013832412603459618,0.0011230908569971711,0.9998852327812554,0.0,0.0,0.0,0.0,0.0,0.0,0.0,0.0,0.0,-0.006823059171438217,-0.003190380521118641,-0.027615517377853394,0.01,0.0,0.0,0.0,0.01,0.0,0.0,0.0,0.01,0.27250558137893677,0.5196077823638916,9.872953414916992,0.01,0.0,0.0,0.0,0.01,0.0,0.0,0.0,0.01
1648214157.5296679,7143,1648214157,529261007,fufi_imu_link,-0.006020714094837296,-0.013683153749239068,0.0006375840926053282,0.9998880516296751,0.0,0.0,0.0,0.0,0.0,0.0,0.0,0.0,0.0,-0.00749936792999506,0.006688808556646109,-0.025759948417544365,0.01,0.0,0.0,0.0,0.01,0.0,0.0,0.0,0.01,0.1538424789905548,0.5943353176116943,9.380889892578125,0.01,0.0,0.0,0.0,0.01,0.0,0.0,0.0,0.01
1648214157.567051,7144,1648214157,566743446,fufi_imu_link,-0.006044923679790621,-0.013706014392085073,0.0005171316328169999,0.99988766201112,0.0,0.0,0.0,0.0,0.0,0.0,0.0,0.0,0.0,-0.008558381348848343,-0.0028633931651711464,-0.00623980350792408,0.01,0.0,0.0,0.0,0.01,0.0,0.0,0.0,0.01,0.14810499548912048,0.41397297382354736,9.978605270385742,0.01,0.0,0.0,0.0,0.01,0.0,0.0,0.0,0.01
1648214157.604545,7145,1648214157,604236010,fufi_imu_link,-0.006233977382385536,-0.013696083876790225,0.0005664312871092833,0.9998866105554334,0.0,0.0,0.0,0.0,0.0,0.0,0.0,0.0,0.0,-0.015626031905412674,0.0012779543176293373,0.0029332097619771957,0.01,0.0,0.0,0.0,0.01,0.0,0.0,0.0,0.01,0.3177340030670166,0.28036338090896606,9.607473373413086,0.01,0.0,0.0,0.0,0.01,0.0,0.0,0.0,0.01
1648214157.6123633,7146,1648214157,612098309,fufi_imu_link,-0.006186649829594678,-0.013701532109472548,0.0006022955440605768,0.9998868089047963,0.0,0.0,0.0,0.0,0.0,0.0,0.0,0.0,0.0,-0.007499407045543194,0.002442572731524706,0.009535638615489006,0.01,0.0,0.0,0.0,0.01,0.0,0.0,0.0,0.01,0.323400616645813,0.1776333600282669,9.653507232666016,0.01,0.0,0.0,0.0,0.01,0.0,0.0,0.0,0.01
1648214157.6419022,7147,1648214157,641577251,fufi_imu_link,-0.006118488781791755,-0.013810571575551038,0.0008095077916503402,0.9998855819067094,0.0,0.0,0.0,0.0,0.0,0.0,0.0,0.0,0.0,0.0013912164140492678,-0.006956222467124462,0.014048309996724129,0.01,0.0,0.0,0.0,0.01,0.0,0.0,0.0,0.01,0.29494041204452515,0.07500059902667999,9.592689514160156,0.01,0.0,0.0,0.0,0.01,0.0,0.0,0.0,0.01
1648214157.6789918,7148,1648214157,678713597,fufi_imu_link,-0.006340591383011416,-0.01390888650704154,0.001019296080250458,0.9998826435200027,0.0,0.0,0.0,0.0,0.0,0.0,0.0,0.0,0.0,-0.010325835086405277,-0.005397955887019634,0.0113882627338171,0.01,0.0,0.0,0.0,0.01,0.0,0.0,0.0,0.01,0.2702634930610657,-0.23280616104602814,9.827516555786133,0.01,0.0,0.0,0.0,0.01,0.0,0.0,0.0,0.01
1648214157.687242,7149,1648214157,687000222,fufi_imu_link,-0.006422888494922131,-0.01388481682593473,0.0010778099984266245,0.9998823914294618,0.0,0.0,0.0,0.0,0.0,0.0,0.0,0.0,0.0,-0.009945446625351906,0.005598986987024546,0.014162296429276466,0.01,0.0,0.0,0.0,0.01,0.0,0.0,0.0,0.01,0.2632552683353424,-0.2764742374420166,9.560986518859863,0.01,0.0,0.0,0.0,0.01,0.0,0.0,0.0,0.01
1648214157.7254057,7150,1648214157,725158305,fufi_imu_link,-0.00636821097245109,-0.013870216401023082,0.001213136524290903,0.9998827887736506,0.0,0.0,0.0,0.0,0.0,0.0,0.0,0.0,0.0,0.0070395623333752155,0.0001598685048520565,0.006936993449926376,0.01,0.0,0.0,0.0,0.01,0.0,0.0,0.0,0.01,0.22369757294654846,-0.4166792035102844,9.521224975585938,0.01,0.0,0.0,0.0,0.01,0.0,0.0,0.0,0.01
1648214157.7536705,7151,1648214157,753443582,fufi_imu_link,-0.0063395870627314934,-0.013945841832370893,0.0011598793696907068,0.9998819819415231,0.0,0.0,0.0,0.0,0.0,0.0,0.0,0.0,0.0,0.009938964620232582,-0.005622148048132658,-0.004052877426147461,0.01,0.0,0.0,0.0,0.01,0.0,0.0,0.0,0.01,0.2526044547557831,-0.5559332370758057,9.634634971618652,0.01,0.0,0.0,0.0,0.01,0.0,0.0,0.0,0.01
1648214157.7619617,7152,1648214157,761732647,fufi_imu_link,-0.006477252343860604,-0.013944788073774158,0.0011383423422161663,0.9998811390682213,0.0,0.0,0.0,0.0,0.0,0.0,0.0,0.0,0.0,-0.0074736448004841805,0.0024755029007792473,-0.005422921851277351,0.01,0.0,0.0,0.0,0.01,0.0,0.0,0.0,0.01,0.2977927327156067,-0.5271750688552856,9.470376968383789,0.01,0.0,0.0,0.0,0.01,0.0,0.0,0.0,0.01
1648214157.8090332,7153,1648214157,808700059,fufi_imu_link,-0.006302854693206959,-0.014080019452407999,0.00047429605090627445,0.9998808939659726,0.0,0.0,0.0,0.0,0.0,0.0,0.0,0.0,0.0,0.011750630103051662,-0.007441654801368713,-0.028570635244250298,0.01,0.0,0.0,0.0,0.01,0.0,0.0,0.0,0.01,0.1027940958738327,-0.5419021248817444,9.525381088256836,0.01,0.0,0.0,0.0,0.01,0.0,0.0,0.0,0.01
1648214157.809357,7154,1648214157,809141378,fufi_imu_link,-0.006397484081651489,-0.014080855983360757,0.00046853067667630905,0.999880283919633,0.0,0.0,0.0,0.0,0.0,0.0,0.0,0.0,0.0,-0.009374246932566166,-0.0009189336560666561,-0.0319007970392704,0.01,0.0,0.0,0.0,0.01,0.0,0.0,0.0,0.01,0.2713921070098877,-0.4756165146827698,9.559491157531738,0.01,0.0,0.0,0.0,0.01,0.0,0.0,0.0,0.01
1648214157.8286707,7155,1648214157,828236977,fufi_imu_link,-0.006258084130514818,-0.01399344136519311,9.055074521577175e-05,0.9998824989879246,0.0,0.0,0.0,0.0,0.0,0.0,0.0,0.0,0.0,0.020703405141830444,0.010064162313938141,-0.03990911692380905,0.01,0.0,0.0,0.0,0.01,0.0,0.0,0.0,0.01,0.292187362909317,-0.36246123909950256,9.574435234069824,0.01,0.0,0.0,0.0,0.01,0.0,0.0,0.0,0.01
1648214157.8368444,7156,1648214157,836529384,fufi_imu_link,-0.006240552307373236,-0.013910743288902188,-0.00010949510648137069,0.999883760613638,0.0,0.0,0.0,0.0,0.0,0.0,0.0,0.0,0.0,0.01875593140721321,0.01279141753911972,-0.0486941859126091,0.01,0.0,0.0,0.0,0.01,0.0,0.0,0.0,0.01,0.1506730020046234,-0.36508479714393616,9.710502624511719,0.01,0.0,0.0,0.0,0.01,0.0,0.0,0.0,0.01
1648214157.8838387,7157,1648214157,883498929,fufi_imu_link,-0.006472891664856417,-0.01397541716393087,-0.0013835083228702916,0.999880430498222,0.0,0.0,0.0,0.0,0.0,0.0,0.0,0.0,0.0,-0.01261716615408659,-0.004169680643826723,-0.05408906936645508,0.01,0.0,0.0,0.0,0.01,0.0,0.0,0.0,0.01,0.11387482285499573,0.05399837717413902,9.837944030761719,0.01,0.0,0.0,0.0,0.01,0.0,0.0,0.0,0.01
1648214157.8841264,7158,1648214157,883869122,fufi_imu_link,-0.006454562275388393,-0.013945943215384898,-0.0013937785309138364,0.9998809462506391,0.0,0.0,0.0,0.0,0.0,0.0,0.0,0.0,0.0,-0.006152738817036152,-0.0115213543176651,-0.0551246777176857,0.01,0.0,0.0,0.0,0.01,0.0,0.0,0.0,0.01,0.15091122686862946,-0.05125795677304268,9.866707801818848,0.01,0.0,0.0,0.0,0.01,0.0,0.0,0.0,0.01
1648214157.911765,7159,1648214157,911254118,fufi_imu_link,-0.006487285150361761,-0.013918361919594904,-0.002111387880811963,0.9998798609703416,0.0,0.0,0.0,0.0,0.0,0.0,0.0,0.0,0.0,-0.005894904024899006,-0.0028486368246376514,-0.05234621465206146,0.01,0.0,0.0,0.0,0.01,0.0,0.0,0.0,0.01,-0.004429877735674381,0.020591910928487778,9.506014823913574,0.01,0.0,0.0,0.0,0.01,0.0,0.0,0.0,0.01
1648214157.9495418,7160,1648214157,949258817,fufi_imu_link,-0.006436052511221466,-0.013752572620532722,-0.0032742251280169278,0.9998793544344242,0.0,0.0,0.0,0.0,0.0,0.0,0.0,0.0,0.0,-0.002579259220510721,0.006687675137072802,-0.06107732653617859,0.01,0.0,0.0,0.0,0.01,0.0,0.0,0.0,0.01,0.08756229281425476,0.19817639887332916,9.656449317932129,0.01,0.0,0.0,0.0,0.01,0.0,0.0,0.0,0.01
1648214157.958774,7161,1648214157,958554958,fufi_imu_link,-0.006426992009891667,-0.013680556897171186,-0.0035669359812079875,0.9998793992799303,0.0,0.0,0.0,0.0,0.0,0.0,0.0,0.0,0.0,-0.007785969879478216,-0.0009971624240279198,-0.0628676638007164,0.01,0.0,0.0,0.0,0.01,0.0,0.0,0.0,0.01,-0.03785338252782822,0.03476571664214134,9.797014236450195,0.01,0.0,0.0,0.0,0.01,0.0,0.0,0.0,0.01
1648214158.0244298,7162,1648214158,24088402,fufi_imu_link,-0.006463226186576478,-0.013618190796251345,-0.005961987763272491,0.9998686045119173,0.0,0.0,0.0,0.0,0.0,0.0,0.0,0.0,0.0,-0.0034799911081790924,0.0023675402626395226,-0.07302182912826538,0.01,0.0,0.0,0.0,0.01,0.0,0.0,0.0,0.01,0.26074713468551636,0.0482247918844223,9.544153213500977,0.01,0.0,0.0,0.0,0.01,0.0,0.0,0.0,0.01
1648214158.042283,7163,1648214158,42013771,fufi_imu_link,-0.006436686874002589,-0.01356743055802757,-0.0066025902503627125,0.9998654407929725,0.0,0.0,0.0,0.0,0.0,0.0,0.0,0.0,0.0,-0.006384166423231363,0.006076624151319265,-0.0712442696094513,0.01,0.0,0.0,0.0,0.01,0.0,0.0,0.0,0.01,0.26174816489219666,0.16544392704963684,9.69729995727539,0.01,0.0,0.0,0.0,0.01,0.0,0.0,0.0,0.01
1648214158.0797546,7164,1648214158,79408085,fufi_imu_link,-0.006781314508251936,-0.013544949060137182,-0.007789680864064406,0.999854923976741,0.0,0.0,0.0,0.0,0.0,0.0,0.0,0.0,0.0,-0.02032589353621006,0.003329319879412651,-0.06317591667175293,0.01,0.0,0.0,0.0,0.01,0.0,0.0,0.0,0.01,0.39012467861175537,-0.05442739278078079,9.523950576782227,0.01,0.0,0.0,0.0,0.01,0.0,0.0,0.0,0.01
1648214158.0884607,7165,1648214158,88145870,fufi_imu_link,-0.006838561747043759,-0.013544763644937544,-0.008056656892804595,0.999852420975589,0.0,0.0,0.0,0.0,0.0,0.0,0.0,0.0,0.0,-0.02130802348256111,0.0009434400126338005,-0.060717593878507614,0.01,0.0,0.0,0.0,0.01,0.0,0.0,0.0,0.01,0.26974576711654663,-0.006006427109241486,9.5509614944458,0.01,0.0,0.0,0.0,0.01,0.0,0.0,0.0,0.01
1648214158.0992498,7166,1648214158,98861156,fufi_imu_link,-0.006874061213295613,-0.013537139435952148,-0.008368019199885428,0.9998497234049715,0.0,0.0,0.0,0.0,0.0,0.0,0.0,0.0,0.0,-0.02251157909631729,-0.0012866223696619272,-0.05764231085777283,0.01,0.0,0.0,0.0,0.01,0.0,0.0,0.0,0.01,0.19874835014343262,0.1792842447757721,9.607620239257812,0.01,0.0,0.0,0.0,0.01,0.0,0.0,0.0,0.01
1648214158.1176047,7167,1648214158,116784025,fufi_imu_link,-0.00687991787978335,-0.013566441946372207,-0.008813478777297124,0.9998454585458321,0.0,0.0,0.0,0.0,0.0,0.0,0.0,0.0,0.0,-0.0032210410572588444,0.0010494240559637547,-0.04961245879530907,0.01,0.0,0.0,0.0,0.01,0.0,0.0,0.0,0.01,0.3929077088832855,-0.06310183554887772,9.466384887695312,0.01,0.0,0.0,0.0,0.01,0.0,0.0,0.0,0.01
1648214158.1546357,7168,1648214158,154280132,fufi_imu_link,-0.006883079541801672,-0.013445527723078504,-0.009483544134026953,0.9998409390452699,0.0,0.0,0.0,0.0,0.0,0.0,0.0,0.0,0.0,-0.002325627254322171,0.007014035247266293,-0.035642288625240326,0.01,0.0,0.0,0.0,0.01,0.0,0.0,0.0,0.01,0.27934765815734863,-0.013874039053916931,9.487167358398438,0.01,0.0,0.0,0.0,0.01,0.0,0.0,0.0,0.01
1648214158.1624057,7169,1648214158,162192335,fufi_imu_link,-0.006940241552224801,-0.013432495327150695,-0.009626148360503524,0.9998393562889113,0.0,0.0,0.0,0.0,0.0,0.0,0.0,0.0,0.0,-0.018510790541768074,0.006534824147820473,-0.03568942844867706,0.01,0.0,0.0,0.0,0.01,0.0,0.0,0.0,0.01,0.3101764917373657,-0.0780344009399414,9.708944320678711,0.01,0.0,0.0,0.0,0.01,0.0,0.0,0.0,0.01
1648214158.1918604,7170,1648214158,191580463,fufi_imu_link,-0.006986969840587153,-0.013367176459918374,-0.010345045013316295,0.9998327264545849,0.0,0.0,0.0,0.0,0.0,0.0,0.0,0.0,0.0,-0.0038580794353038073,0.005674807354807854,-0.048835210502147675,0.01,0.0,0.0,0.0,0.01,0.0,0.0,0.0,0.01,0.30594977736473083,-0.13104107975959778,9.467388153076172,0.01,0.0,0.0,0.0,0.01,0.0,0.0,0.0,0.01
1648214158.2187033,7171,1648214158,218491390,fufi_imu_link,-0.006794807367025483,-0.013242147026516486,-0.01146848313498618,0.9998234594314918,0.0,0.0,0.0,0.0,0.0,0.0,0.0,0.0,0.0,0.015372644178569317,0.005483522079885006,-0.08373524248600006,0.01,0.0,0.0,0.0,0.01,0.0,0.0,0.0,0.01,0.023434551432728767,-0.25189268589019775,9.801493644714355,0.01,0.0,0.0,0.0,0.01,0.0,0.0,0.0,0.01
1648214158.237366,7172,1648214158,237002040,fufi_imu_link,-0.0066218969751204206,-0.013243736352341303,-0.012323259702280702,0.9998144283806825,0.0,0.0,0.0,0.0,0.0,0.0,0.0,0.0,0.0,0.01987634040415287,0.0028252932243049145,-0.09263481199741364,0.01,0.0,0.0,0.0,0.01,0.0,0.0,0.0,0.01,0.33975744247436523,-0.21425272524356842,9.802112579345703,0.01,0.0,0.0,0.0,0.01,0.0,0.0,0.0,0.01
1648214158.275454,7173,1648214158,275049812,fufi_imu_link,-0.00660529868691911,-0.013330381540610331,-0.014666393753007795,0.9997817601114356,0.0,0.0,0.0,0.0,0.0,0.0,0.0,0.0,0.0,-0.0013724701711907983,-0.005014317110180855,-0.12320701777935028,0.01,0.0,0.0,0.0,0.01,0.0,0.0,0.0,0.01,0.16707980632781982,-0.07600915431976318,9.673967361450195,0.01,0.0,0.0,0.0,0.01,0.0,0.0,0.0,0.01
1648214158.3038595,7174,1648214158,303512103,fufi_imu_link,-0.006553670402322888,-0.013232185912598504,-0.016610925420290544,0.9997529874008448,0.0,0.0,0.0,0.0,0.0,0.0,0.0,0.0,0.0,0.002919292775914073,0.00440333504229784,-0.13671855628490448,0.01,0.0,0.0,0.0,0.01,0.0,0.0,0.0,0.01,0.06880004703998566,-0.18548741936683655,9.430548667907715,0.01,0.0,0.0,0.0,0.01,0.0,0.0,0.0,0.01
1648214158.3119745,7175,1648214158,311706374,fufi_imu_link,-0.00656412297297667,-0.013195763069861026,-0.017187732386075526,0.9997436501333852,0.0,0.0,0.0,0.0,0.0,0.0,0.0,0.0,0.0,-0.0027013500221073627,0.005131720099598169,-0.14080241322517395,0.01,0.0,0.0,0.0,0.01,0.0,0.0,0.0,0.01,0.18306583166122437,-0.1508065015077591,9.580902099609375,0.01,0.0,0.0,0.0,0.01,0.0,0.0,0.0,0.01
1648214158.3591118,7176,1648214158,358725080,fufi_imu_link,-0.006428849974432999,-0.01336710294161742,-0.02032144318938002,0.9996834645994978,0.0,0.0,0.0,0.0,0.0,0.0,0.0,0.0,0.0,0.004215119406580925,-0.006811770144850016,-0.13343945145606995,0.01,0.0,0.0,0.0,0.01,0.0,0.0,0.0,0.01,0.21996159851551056,-0.1300562620162964,9.714361190795898,0.01,0.0,0.0,0.0,0.01,0.0,0.0,0.0,0.01
1648214158.3785834,7177,1648214158,378273720,fufi_imu_link,-0.006343419599004138,-0.013381863479646176,-0.021482896935104797,0.9996595279878439,0.0,0.0,0.0,0.0,0.0,0.0,0.0,0.0,0.0,0.0037803149316459894,-0.0024000678677111864,-0.11889638751745224,0.01,0.0,0.0,0.0,0.01,0.0,0.0,0.0,0.01,0.1962897777557373,0.010300150141119957,9.80458927154541,0.01,0.0,0.0,0.0,0.01,0.0,0.0,0.0,0.01
1648214158.386836,7178,1648214158,386519359,fufi_imu_link,-0.006290503700886119,-0.013344108123011036,-0.021978296825327738,0.9996495980143484,0.0,0.0,0.0,0.0,0.0,0.0,0.0,0.0,0.0,0.003527763532474637,0.005238174460828304,-0.12014224380254745,0.01,0.0,0.0,0.0,0.01,0.0,0.0,0.0,0.01,0.17840732634067535,0.002705290913581848,9.44968032836914,0.01,0.0,0.0,0.0,0.01,0.0,0.0,0.0,0.01
1648214158.4337523,7179,1648214158,433472625,fufi_imu_link,-0.006560317721615424,-0.01317554231189112,-0.02521678636194325,0.9995736496135516,0.0,0.0,0.0,0.0,0.0,0.0,0.0,0.0,0.0,-0.01352704782038927,0.005466350354254246,-0.13779759407043457,0.01,0.0,0.0,0.0,0.01,0.0,0.0,0.0,0.01,0.05275287106633186,-0.12201583385467529,9.883491516113281,0.01,0.0,0.0,0.0,0.01,0.0,0.0,0.0,0.01
1648214158.4340098,7180,1648214158,433871652,fufi_imu_link,-0.006551165387159627,-0.013094136532034206,-0.025244604138546685,0.9995740771860976,0.0,0.0,0.0,0.0,0.0,0.0,0.0,0.0,0.0,-0.003916768357157707,-0.0021109534427523613,-0.14136995375156403,0.01,0.0,0.0,0.0,0.01,0.0,0.0,0.0,0.01,-0.05952240526676178,-0.09054470807313919,9.580944061279297,0.01,0.0,0.0,0.0,0.01,0.0,0.0,0.0,0.01
1648214158.4615724,7181,1648214158,461299518,fufi_imu_link,-0.006661882445123297,-0.013127646765470121,-0.027524962448371073,0.999512711602461,0.0,0.0,0.0,0.0,0.0,0.0,0.0,0.0,0.0,-0.010483980178833008,-0.008018368855118752,-0.1663062870502472,0.01,0.0,0.0,0.0,0.01,0.0,0.0,0.0,0.01,-0.07884205877780914,-0.10593648254871368,9.450005531311035,0.01,0.0,0.0,0.0,0.01,0.0,0.0,0.0,0.01
1648214158.499677,7182,1648214158,499321926,fufi_imu_link,-0.006934637556394681,-0.012842052451361658,-0.03213123297987814,0.9993770941731608,0.0,0.0,0.0,0.0,0.0,0.0,0.0,0.0,0.0,-0.014421012252569199,0.007953731343150139,-0.24228373169898987,0.01,0.0,0.0,0.0,0.01,0.0,0.0,0.0,0.01,-0.3436035215854645,-0.3870914578437805,9.60389518737793,0.01,0.0,0.0,0.0,0.01,0.0,0.0,0.0,0.01
1648214158.50887,7183,1648214158,508603218,fufi_imu_link,-0.007013594250799239,-0.012687220172397463,-0.03335943056348948,0.9993382772277174,0.0,0.0,0.0,0.0,0.0,0.0,0.0,0.0,0.0,-0.00632096640765667,0.006448686588555574,-0.2650783956050873,0.01,0.0,0.0,0.0,0.01,0.0,0.0,0.0,0.01,-0.24604803323745728,-0.39080068469047546,9.446667671203613,0.01,0.0,0.0,0.0,0.01,0.0,0.0,0.0,0.01
1648214158.5746524,7184,1648214158,574214243,fufi_imu_link,-0.0073330295753754925,-0.011982897874019613,-0.04528095694119431,0.998875503641108,0.0,0.0,0.0,0.0,0.0,0.0,0.0,0.0,0.0,-0.015505712479352951,0.02081560343503952,-0.3634091913700104,0.01,0.0,0.0,0.0,0.01,0.0,0.0,0.0,0.01,-0.1009514108300209,-0.09057092666625977,9.592508316040039,0.01,0.0,0.0,0.0,0.01,0.0,0.0,0.0,0.01
1648214158.5926857,7185,1648214158,592020288,fufi_imu_link,-0.007198818639204349,-0.011890704463661354,-0.0485264733086593,0.9987251721799055,0.0,0.0,0.0,0.0,0.0,0.0,0.0,0.0,0.0,0.011342990212142467,0.008180263452231884,-0.365104079246521,0.01,0.0,0.0,0.0,0.01,0.0,0.0,0.0,0.01,0.056343622505664825,-0.1774156093597412,10.01820182800293,0.01,0.0,0.0,0.0,0.01,0.0,0.0,0.0,0.01
1648214158.6296854,7186,1648214158,629416317,fufi_imu_link,-0.007684327459079137,-0.01151557928248498,-0.05497549684517917,0.998391725372319,0.0,0.0,0.0,0.0,0.0,0.0,0.0,0.0,0.0,-0.030474962666630745,0.022245049476623535,-0.34488359093666077,0.01,0.0,0.0,0.0,0.01,0.0,0.0,0.0,0.01,0.30502599477767944,-0.1762714982032776,9.300272941589355,0.01,0.0,0.0,0.0,0.01,0.0,0.0,0.0,0.01
1648214158.6388316,7187,1648214158,638252138,fufi_imu_link,-0.007816293708199827,-0.011457720232782591,-0.05648531287810276,0.9983070848335183,0.0,0.0,0.0,0.0,0.0,0.0,0.0,0.0,0.0,-0.027434660121798515,0.022686336189508438,-0.3418538570404053,0.01,0.0,0.0,0.0,0.01,0.0,0.0,0.0,0.01,0.3882729709148407,-0.2658589482307434,9.862714767456055,0.01,0.0,0.0,0.0,0.01,0.0,0.0,0.0,0.01
1648214158.6492133,7188,1648214158,648922859,fufi_imu_link,-0.007860663727292107,-0.011361531166029754,-0.0582699590686023,0.998205258173625,0.0,0.0,0.0,0.0,0.0,0.0,0.0,0.0,0.0,-0.01970638707280159,0.026410028338432312,-0.33452537655830383,0.01,0.0,0.0,0.0,0.01,0.0,0.0,0.0,0.01,0.37571433186531067,-0.007407468743622303,10.053980827331543,0.01,0.0,0.0,0.0,0.01,0.0,0.0,0.0,0.01
1648214158.6672583,7189,1648214158,666874359,fufi_imu_link,-0.0075316131096432645,-0.011307668381340745,-0.06112935196586149,0.998037380947216,0.0,0.0,0.0,0.0,0.0,0.0,0.0,0.0,0.0,0.022300444543361664,0.012073058634996414,-0.3191945254802704,0.01,0.0,0.0,0.0,0.01,0.0,0.0,0.0,0.01,0.28778350353240967,0.2233554571866989,9.817307472229004,0.01,0.0,0.0,0.0,0.01,0.0,0.0,0.0,0.01
1648214158.7046266,7190,1648214158,704304674,fufi_imu_link,-0.00782325124780898,-0.01151912131601401,-0.06606092542178708,0.9977184275718465,0.0,0.0,0.0,0.0,0.0,0.0,0.0,0.0,0.0,-0.021772261708974838,-0.011269462294876575,-0.2638648748397827,0.01,0.0,0.0,0.0,0.01,0.0,0.0,0.0,0.01,0.1720697283744812,0.13827070593833923,9.7295560836792,0.01,0.0,0.0,0.0,0.01,0.0,0.0,0.0,0.01
1648214158.7124135,7191,1648214158,712175763,fufi_imu_link,-0.007742984822635853,-0.011527292274373211,-0.06709240361762626,0.99765012759768,0.0,0.0,0.0,0.0,0.0,0.0,0.0,0.0,0.0,0.006385410204529762,-0.01127932034432888,-0.26280325651168823,0.01,0.0,0.0,0.0,0.01,0.0,0.0,0.0,0.01,0.04457838088274002,0.031268827617168427,9.705379486083984,0.01,0.0,0.0,0.0,0.01,0.0,0.0,0.0,0.01
1648214158.7419875,7192,1648214158,741683986,fufi_imu_link,-0.007880774828197623,-0.011124221199414613,-0.07105220853017123,0.9973794306851325,0.0,0.0,0.0,0.0,0.0,0.0,0.0,0.0,0.0,-0.015967270359396935,0.028045175597071648,-0.26863864064216614,0.01,0.0,0.0,0.0,0.01,0.0,0.0,0.0,0.01,0.18713751435279846,-0.04411068558692932,9.068010330200195,0.01,0.0,0.0,0.0,0.01,0.0,0.0,0.0,0.01
1648214158.7688987,7193,1648214158,768541311,fufi_imu_link,-0.007835051451819027,-0.010919969064153285,-0.07491584868957697,0.9970992838526692,0.0,0.0,0.0,0.0,0.0,0.0,0.0,0.0,0.0,-0.0045075188390910625,0.014584584161639214,-0.2883246839046478,0.01,0.0,0.0,0.0,0.01,0.0,0.0,0.0,0.01,0.07573865354061127,0.04429703578352928,9.991719245910645,0.01,0.0,0.0,0.0,0.01,0.0,0.0,0.0,0.01
1648214158.7874265,7194,1648214158,787026080,fufi_imu_link,-0.007560917812000637,-0.010997145045540486,-0.07756129004200416,0.9968982604106137,0.0,0.0,0.0,0.0,0.0,0.0,0.0,0.0,0.0,0.021701131016016006,-0.006246869917958975,-0.2873283624649048,0.01,0.0,0.0,0.0,0.01,0.0,0.0,0.0,0.01,0.15213391184806824,0.05775707960128784,10.040748596191406,0.01,0.0,0.0,0.0,0.01,0.0,0.0,0.0,0.01
1648214158.8538992,7195,1648214158,853626177,fufi_imu_link,-0.007538543988319639,-0.010512513070773376,-0.08729177918287807,0.9960987916419539,0.0,0.0,0.0,0.0,0.0,0.0,0.0,0.0,0.0,-0.004642239771783352,0.016189415007829666,-0.2930598855018616,0.01,0.0,0.0,0.0,0.01,0.0,0.0,0.0,0.01,0.1682441681623459,-0.026034679263830185,9.36802864074707,0.01,0.0,0.0,0.0,0.01,0.0,0.0,0.0,0.01
1648214158.8620741,7196,1648214158,861822388,fufi_imu_link,-0.00750905364327362,-0.010515146827440999,-0.08848369150759047,0.9959938163150258,0.0,0.0,0.0,0.0,0.0,0.0,0.0,0.0,0.0,0.007177887950092554,0.004571727477014065,-0.2920632064342499,0.01,0.0,0.0,0.0,0.01,0.0,0.0,0.0,0.01,0.25544318556785583,-0.17578943073749542,9.591717720031738,0.01,0.0,0.0,0.0,0.01,0.0,0.0,0.0,0.01
1648214158.909231,7197,1648214158,908818105,fufi_imu_link,-0.00762500432208307,-0.010448055929534399,-0.09524140498587108,0.9953701684361949,0.0,0.0,0.0,0.0,0.0,0.0,0.0,0.0,0.0,-0.009611238725483418,0.0027950285002589226,-0.2887105345726013,0.01,0.0,0.0,0.0,0.01,0.0,0.0,0.0,0.01,0.07867170125246048,-0.017924366518855095,9.572565078735352,0.01,0.0,0.0,0.0,0.01,0.0,0.0,0.0,0.01
1648214158.9286544,7198,1648214158,928303807,fufi_imu_link,-0.007716578106880679,-0.010416290018191608,-0.09796212793423366,0.9951057113770246,0.0,0.0,0.0,0.0,0.0,0.0,0.0,0.0,0.0,-0.0174988005310297,0.0011602374725043774,-0.28035902976989746,0.01,0.0,0.0,0.0,0.01,0.0,0.0,0.0,0.01,0.09768535196781158,0.045997705310583115,9.370384216308594,0.01,0.0,0.0,0.0,0.01,0.0,0.0,0.0,0.01
1648214158.9369342,7199,1648214158,936626105,fufi_imu_link,-0.007659756511103809,-0.010450393618524094,-0.09908397837035693,0.9949947148772758,0.0,0.0,0.0,0.0,0.0,0.0,0.0,0.0,0.0,0.0014642637688666582,-0.010169457644224167,-0.27094772458076477,0.01,0.0,0.0,0.0,0.01,0.0,0.0,0.0,0.01,0.13543197512626648,0.03185802325606346,9.839698791503906,0.01,0.0,0.0,0.0,0.01,0.0,0.0,0.0,0.01
1648214158.9838836,7200,1648214158,983522828,fufi_imu_link,-0.007793785630314788,-0.010424821608830697,-0.10557274992708907,0.9943263923243741,0.0,0.0,0.0,0.0,0.0,0.0,0.0,0.0,0.0,-0.008602375164628029,0.00023842044174671173,-0.2781374454498291,0.01,0.0,0.0,0.0,0.01,0.0,0.0,0.0,0.01,0.025797933340072632,-0.1510760486125946,9.289522171020508,0.01,0.0,0.0,0.0,0.01,0.0,0.0,0.0,0.01
1648214158.9840121,7201,1648214158,983869060,fufi_imu_link,-0.007790957984595871,-0.01037587644547708,-0.10562125127540609,0.9943217756041995,0.0,0.0,0.0,0.0,0.0,0.0,0.0,0.0,0.0,-0.012214100919663906,0.009228983893990517,-0.2831260859966278,0.01,0.0,0.0,0.0,0.01,0.0,0.0,0.0,0.01,0.031031586229801178,-0.12822137773036957,9.415092468261719,0.01,0.0,0.0,0.0,0.01,0.0,0.0,0.0,0.01
1648214159.011652,7202,1648214159,11307893,fufi_imu_link,-0.007781565667938967,-0.010293316482290678,-0.10952054464013264,0.9939007722973555,0.0,0.0,0.0,0.0,0.0,0.0,0.0,0.0,0.0,-0.007733664941042662,0.008907326497137547,-0.28569215536117554,0.01,0.0,0.0,0.0,0.01,0.0,0.0,0.0,0.01,0.2677081823348999,0.11657819151878357,9.807880401611328,0.01,0.0,0.0,0.0,0.01,0.0,0.0,0.0,0.01
1648214159.0393405,7203,1648214159,38972073,fufi_imu_link,-0.007859715613624675,-0.010306032447950496,-0.11343116436966953,0.9934613135474354,0.0,0.0,0.0,0.0,0.0,0.0,0.0,0.0,0.0,-0.01152840256690979,-0.0007079523056745529,-0.2843776345252991,0.01,0.0,0.0,0.0,0.01,0.0,0.0,0.0,0.01,0.1553581804037094,0.02292649820446968,9.454867362976074,0.01,0.0,0.0,0.0,0.01,0.0,0.0,0.0,0.01
1648214159.0586274,7204,1648214159,58253042,fufi_imu_link,-0.007835721101919291,-0.010254038195630635,-0.116180976504892,0.9931442175605039,0.0,0.0,0.0,0.0,0.0,0.0,0.0,0.0,0.0,-0.005876677110791206,0.006829698570072651,-0.28699469566345215,0.01,0.0,0.0,0.0,0.01,0.0,0.0,0.0,0.01,0.1871061623096466,0.040802694857120514,9.640658378601074,0.01,0.0,0.0,0.0,0.01,0.0,0.0,0.0,0.01
1648214159.0588107,7205,1648214159,58647109,fufi_imu_link,-0.007810570366607955,-0.01022791534202258,-0.11623713790938549,0.9931381135113783,0.0,0.0,0.0,0.0,0.0,0.0,0.0,0.0,0.0,-0.008950862102210522,0.012870701029896736,-0.2861372232437134,0.01,0.0,0.0,0.0,0.01,0.0,0.0,0.0,0.01,0.10954641550779343,-0.03761738911271095,9.522066116333008,0.01,0.0,0.0,0.0,0.01,0.0,0.0,0.0,0.01
1648214159.1246836,7206,1648214159,124274615,fufi_imu_link,-0.007983767421081107,-0.010325429732317782,-0.12490758504296227,0.992082526888436,0.0,0.0,0.0,0.0,0.0,0.0,0.0,0.0,0.0,-0.01041509211063385,-0.0018598390743136406,-0.266080766916275,0.01,0.0,0.0,0.0,0.01,0.0,0.0,0.0,0.01,0.21099412441253662,0.19582247734069824,9.674647331237793,0.01,0.0,0.0,0.0,0.01,0.0,0.0,0.0,0.01
1648214159.1336997,7207,1648214159,133447462,fufi_imu_link,-0.007926762764160045,-0.010319266229910692,-0.12611702145527928,0.9919300257960768,0.0,0.0,0.0,0.0,0.0,0.0,0.0,0.0,0.0,-0.012055700644850731,0.003434793557971716,-0.2654211223125458,0.01,0.0,0.0,0.0,0.01,0.0,0.0,0.0,0.01,0.19065946340560913,0.24190613627433777,9.431015014648438,0.01,0.0,0.0,0.0,0.01,0.0,0.0,0.0,0.01
1648214159.1798928,7208,1648214159,179507893,fufi_imu_link,-0.007843287698209874,-0.010395352290347671,-0.13193430847475773,0.9911729201991599,0.0,0.0,0.0,0.0,0.0,0.0,0.0,0.0,0.0,-0.0017368614207953215,-0.0012825019657611847,-0.2547058165073395,0.01,0.0,0.0,0.0,0.01,0.0,0.0,0.0,0.01,0.21222814917564392,0.13512878119945526,9.927302360534668,0.01,0.0,0.0,0.0,0.01,0.0,0.0,0.0,0.01
1648214159.1992743,7209,1648214159,198896058,fufi_imu_link,-0.007783290194290452,-0.010545942638540012,-0.13426896079645764,0.9908582389293917,0.0,0.0,0.0,0.0,0.0,0.0,0.0,0.0,0.0,-0.002479707822203636,-0.014576250687241554,-0.24301555752754211,0.01,0.0,0.0,0.0,0.01,0.0,0.0,0.0,0.01,0.16622650623321533,0.1755775511264801,9.805177688598633,0.01,0.0,0.0,0.0,0.01,0.0,0.0,0.0,0.01
1648214159.2173965,7210,1648214159,216875357,fufi_imu_link,-0.007771874857813961,-0.010601576694982514,-0.13645222573753335,0.9905594351799634,0.0,0.0,0.0,0.0,0.0,0.0,0.0,0.0,0.0,-0.006847575306892395,-0.007766593247652054,-0.24507007002830505,0.01,0.0,0.0,0.0,0.01,0.0,0.0,0.0,0.01,0.1055222898721695,0.08887097984552383,9.4960298538208,0.01,0.0,0.0,0.0,0.01,0.0,0.0,0.0,0.01
1648214159.2547958,7211,1648214159,254360276,fufi_imu_link,-0.007806526796997985,-0.01049997452119906,-0.14104987784945314,0.9899160270614252,0.0,0.0,0.0,0.0,0.0,0.0,0.0,0.0,0.0,-0.004924968350678682,0.005654030479490757,-0.24764055013656616,0.01,0.0,0.0,0.0,0.01,0.0,0.0,0.0,0.01,0.14980797469615936,-0.1581108123064041,9.660772323608398,0.01,0.0,0.0,0.0,0.01,0.0,0.0,0.0,0.01
1648214159.2626095,7212,1648214159,262348180,fufi_imu_link,-0.007778081865174714,-0.010467913990250873,-0.1420262567183876,0.9897769782237583,0.0,0.0,0.0,0.0,0.0,0.0,0.0,0.0,0.0,-0.0005603073514066637,0.004531834740191698,-0.24691274762153625,0.01,0.0,0.0,0.0,0.01,0.0,0.0,0.0,0.01,0.12835241854190826,-0.06344352662563324,9.541421890258789,0.01,0.0,0.0,0.0,0.01,0.0,0.0,0.0,0.01
1648214159.2920456,7213,1648214159,291723236,fufi_imu_link,-0.007783722174213058,-0.010540739079633134,-0.14563765411370755,0.9892512219820736,0.0,0.0,0.0,0.0,0.0,0.0,0.0,0.0,0.0,-0.005367062985897064,-0.004308439791202545,-0.24843399226665497,0.01,0.0,0.0,0.0,0.01,0.0,0.0,0.0,0.01,0.17347536981105804,0.041186727583408356,9.691792488098145,0.01,0.0,0.0,0.0,0.01,0.0,0.0,0.0,0.01
1648214159.3190038,7214,1648214159,318759434,fufi_imu_link,-0.007845744662505533,-0.01045188435980678,-0.14904258382426153,0.9887444111654984,0.0,0.0,0.0,0.0,0.0,0.0,0.0,0.0,0.0,-0.009816257283091545,0.005128985270857811,-0.2545304596424103,0.01,0.0,0.0,0.0,0.01,0.0,0.0,0.0,0.01,0.10334029793739319,-0.04850056767463684,9.59631061553955,0.01,0.0,0.0,0.0,0.01,0.0,0.0,0.0,0.01
1648214159.337515,7215,1648214159,337132359,fufi_imu_link,-0.007918660313167016,-0.0104122656509295,-0.1513816312886365,0.9883888310028855,0.0,0.0,0.0,0.0,0.0,0.0,0.0,0.0,0.0,-0.014033800922334194,0.004173358902335167,-0.25735291838645935,0.01,0.0,0.0,0.0,0.01,0.0,0.0,0.0,0.01,0.20104512572288513,-0.029284536838531494,9.513266563415527,0.01,0.0,0.0,0.0,0.01,0.0,0.0,0.0,0.01
1648214159.4043078,7216,1648214159,403644918,fufi_imu_link,-0.00805229461518735,-0.010396679965879667,-0.16016061066930942,0.987003367971534,0.0,0.0,0.0,0.0,0.0,0.0,0.0,0.0,0.0,-0.009309912100434303,0.002889270894229412,-0.267118364572525,0.01,0.0,0.0,0.0,0.01,0.0,0.0,0.0,0.01,0.4018933176994324,0.16221104562282562,9.776516914367676,0.01,0.0,0.0,0.0,0.01,0.0,0.0,0.0,0.01
1648214159.4120998,7217,1648214159,411841165,fufi_imu_link,-0.007995548244278972,-0.010476504333278602,-0.16124114297772923,0.9868270405073342,0.0,0.0,0.0,0.0,0.0,0.0,0.0,0.0,0.0,-0.0016873839776962996,-0.005632935091853142,-0.26695260405540466,0.01,0.0,0.0,0.0,0.01,0.0,0.0,0.0,0.01,0.38345715403556824,0.12497254461050034,9.814072608947754,0.01,0.0,0.0,0.0,0.01,0.0,0.0,0.0,0.01
1648214159.4501834,7218,1648214159,449927303,fufi_imu_link,-0.007969479496417976,-0.0106839357139625,-0.1663033346696412,0.9859845545402693,0.0,0.0,0.0,0.0,0.0,0.0,0.0,0.0,0.0,-0.004344136454164982,-0.005121835507452488,-0.269417941570282,0.01,0.0,0.0,0.0,0.01,0.0,0.0,0.0,0.01,0.5007396936416626,0.19956935942173004,9.631577491760254,0.01,0.0,0.0,0.0,0.01,0.0,0.0,0.0,0.01
1648214159.4787462,7219,1648214159,478365999,fufi_imu_link,-0.007861777770843527,-0.010760526854980173,-0.17017231597997626,0.9853242036944471,0.0,0.0,0.0,0.0,0.0,0.0,0.0,0.0,0.0,0.0002185051707783714,0.005026469938457012,-0.27592360973358154,0.01,0.0,0.0,0.0,0.01,0.0,0.0,0.0,0.01,0.6346840858459473,0.15383101999759674,9.647420883178711,0.01,0.0,0.0,0.0,0.01,0.0,0.0,0.0,0.01
1648214159.4876847,7220,1648214159,487387970,fufi_imu_link,-0.007823015719727138,-0.010834963658598847,-0.17139830739837777,0.9851111735274029,0.0,0.0,0.0,0.0,0.0,0.0,0.0,0.0,0.0,-0.00591955566778779,0.0073530361987650394,-0.2754746675491333,0.01,0.0,0.0,0.0,0.01,0.0,0.0,0.0,0.01,0.5858108997344971,0.12833525240421295,9.615199089050293,0.01,0.0,0.0,0.0,0.01,0.0,0.0,0.0,0.01
1648214159.5055907,7221,1648214159,505314965,fufi_imu_link,-0.007812606392165081,-0.011070125613459221,-0.1738001815479306,0.984687723288033,0.0,0.0,0.0,0.0,0.0,0.0,0.0,0.0,0.0,-0.007519087754189968,-0.004083158448338509,-0.27181556820869446,0.01,0.0,0.0,0.0,0.01,0.0,0.0,0.0,0.01,0.9268996119499207,0.2322387844324112,9.652257919311523,0.01,0.0,0.0,0.0,0.01,0.0,0.0,0.0,0.01
1648214159.5339274,7222,1648214159,533619250,fufi_imu_link,-0.007707588109311957,-0.011227003258638835,-0.1774923314838077,0.9840279567917823,0.0,0.0,0.0,0.0,0.0,0.0,0.0,0.0,0.0,0.0025478724855929613,0.00290314806625247,-0.2649582624435425,0.01,0.0,0.0,0.0,0.01,0.0,0.0,0.0,0.01,0.833374559879303,0.08100423216819763,9.580185890197754,0.01,0.0,0.0,0.0,0.01,0.0,0.0,0.0,0.01
1648214159.5341878,7223,1648214159,533994356,fufi_imu_link,-0.007711240733084625,-0.01134287081665679,-0.17754189936523987,0.9840176573709315,0.0,0.0,0.0,0.0,0.0,0.0,0.0,0.0,0.0,0.0021810713224112988,0.0029518590308725834,-0.26539066433906555,0.01,0.0,0.0,0.0,0.01,0.0,0.0,0.0,0.01,0.6791422367095947,-0.045901983976364136,9.573200225830078,0.01,0.0,0.0,0.0,0.01,0.0,0.0,0.0,0.01
1648214159.5534914,7224,1648214159,553198504,fufi_imu_link,-0.007612970060018761,-0.011431775353924126,-0.18012193759415293,0.9835483947404169,0.0,0.0,0.0,0.0,0.0,0.0,0.0,0.0,0.0,0.0037773260846734047,0.007801881991326809,-0.27300363779067993,0.01,0.0,0.0,0.0,0.01,0.0,0.0,0.0,0.01,0.7356294393539429,0.06259628385305405,9.523913383483887,0.01,0.0,0.0,0.0,0.01,0.0,0.0,0.0,0.01
1648214159.5615807,7225,1648214159,561358105,fufi_imu_link,-0.007660972339814397,-0.011490121784837494,-0.18122418152988096,0.9833448442092952,0.0,0.0,0.0,0.0,0.0,0.0,0.0,0.0,0.0,-0.013486233539879322,0.018346700817346573,-0.27430200576782227,0.01,0.0,0.0,0.0,0.01,0.0,0.0,0.0,0.01,0.7709351778030396,-0.08936465531587601,9.732619285583496,0.01,0.0,0.0,0.0,0.01,0.0,0.0,0.0,0.01
1648214159.5998015,7226,1648214159,599458627,fufi_imu_link,-0.007655827030685679,-0.011426980140943035,-0.1864567121474448,0.9823668901853827,0.0,0.0,0.0,0.0,0.0,0.0,0.0,0.0,0.0,-0.0044406866654753685,0.009050970897078514,-0.27932003140449524,0.01,0.0,0.0,0.0,0.01,0.0,0.0,0.0,0.01,0.553109884262085,-0.06153900548815727,9.633974075317383,0.01,0.0,0.0,0.0,0.01,0.0,0.0,0.0,0.01
1648214159.608877,7227,1648214159,608641108,fufi_imu_link,-0.007637057823634929,-0.011448625006542045,-0.18773561133464245,0.9821231819736597,0.0,0.0,0.0,0.0,0.0,0.0,0.0,0.0,0.0,-0.01096197497099638,0.0068381959572434425,-0.2832111120223999,0.01,0.0,0.0,0.0,0.01,0.0,0.0,0.0,0.01,0.40772178769111633,0.1137983575463295,9.676902770996094,0.01,0.0,0.0,0.0,0.01,0.0,0.0,0.0,0.01
1648214159.674499,7228,1648214159,674186993,fufi_imu_link,-0.007809127093880692,-0.011452657170886884,-0.19643283058626382,0.980419296650992,0.0,0.0,0.0,0.0,0.0,0.0,0.0,0.0,0.0,-0.009828988462686539,0.00029735779389739037,-0.27031409740448,0.01,0.0,0.0,0.0,0.01,0.0,0.0,0.0,0.01,0.2404308021068573,0.054029934108257294,9.606425285339355,0.01,0.0,0.0,0.0,0.01,0.0,0.0,0.0,0.01
1648214159.6837168,7229,1648214159,683432731,fufi_imu_link,-0.007838773313203665,-0.011404351901804225,-0.1976508178512313,0.9801748051206906,0.0,0.0,0.0,0.0,0.0,0.0,0.0,0.0,0.0,-0.022867929190397263,0.0065086521208286285,-0.26830464601516724,0.01,0.0,0.0,0.0,0.01,0.0,0.0,0.0,0.01,0.17549999058246613,0.09211930632591248,9.638325691223145,0.01,0.0,0.0,0.0,0.01,0.0,0.0,0.0,0.01
1648214159.729722,7230,1648214159,729481115,fufi_imu_link,-0.00785107593051553,-0.0113112371528932,-0.20331455934872356,0.9790166528091535,0.0,0.0,0.0,0.0,0.0,0.0,0.0,0.0,0.0,-0.005110098980367184,0.0025097914040088654,-0.25103694200515747,0.01,0.0,0.0,0.0,0.01,0.0,0.0,0.0,0.01,0.005197858437895775,-0.05335215479135513,9.634771347045898,0.01,0.0,0.0,0.0,0.01,0.0,0.0,0.0,0.01
1648214159.7493658,7231,1648214159,748981935,fufi_imu_link,-0.00799939172954135,-0.011078642256078507,-0.20573784165773853,0.9785117341798895,0.0,0.0,0.0,0.0,0.0,0.0,0.0,0.0,0.0,-0.01980733871459961,0.012615893967449665,-0.25366416573524475,0.01,0.0,0.0,0.0,0.01,0.0,0.0,0.0,0.01,-0.09462963789701462,-0.2222362756729126,9.486055374145508,0.01,0.0,0.0,0.0,0.01,0.0,0.0,0.0,0.01
1648214159.7672448,7232,1648214159,766993956,fufi_imu_link,-0.007896743964571833,-0.01092094624995582,-0.20793558267845852,0.9780496755400176,0.0,0.0,0.0,0.0,0.0,0.0,0.0,0.0,0.0,0.0119838397949934,0.01255104597657919,-0.24960780143737793,0.01,0.0,0.0,0.0,0.01,0.0,0.0,0.0,0.01,-0.04878159612417221,-0.3638433814048767,9.561369895935059,0.01,0.0,0.0,0.0,0.01,0.0,0.0,0.0,0.01
1648214159.804777,7233,1648214159,804397624,fufi_imu_link,-0.007969511151940513,-0.010777984414685391,-0.21245477693858775,0.9770789577613116,0.0,0.0,0.0,0.0,0.0,0.0,0.0,0.0,0.0,-0.007889537140727043,0.0018727383576333523,-0.24711376428604126,0.01,0.0,0.0,0.0,0.01,0.0,0.0,0.0,0.01,-0.20766469836235046,-0.15012741088867188,9.788095474243164,0.01,0.0,0.0,0.0,0.01,0.0,0.0,0.0,0.01
1648214159.8125439,7234,1648214159,812273645,fufi_imu_link,-0.00789080901749423,-0.010721297271534024,-0.21339150655625658,0.9768760688273185,0.0,0.0,0.0,0.0,0.0,0.0,0.0,0.0,0.0,0.0072709848172962666,-0.0006813262589275837,-0.2435334175825119,0.01,0.0,0.0,0.0,0.01,0.0,0.0,0.0,0.01,-0.07512345910072327,-0.011112943291664124,9.934341430664062,0.01,0.0,0.0,0.0,0.01,0.0,0.0,0.0,0.01
1648214159.8420856,7235,1648214159,841759994,fufi_imu_link,-0.007818702426496576,-0.01060529767763193,-0.21684634294594188,0.9761168265656043,0.0,0.0,0.0,0.0,0.0,0.0,0.0,0.0,0.0,-0.00036442663986235857,0.002725541125983,-0.23996230959892273,0.01,0.0,0.0,0.0,0.01,0.0,0.0,0.0,0.01,-0.1794605255126953,-0.07291895151138306,9.564444541931152,0.01,0.0,0.0,0.0,0.01,0.0,0.0,0.0,0.01
1648214159.8690107,7236,1648214159,868659462,fufi_imu_link,-0.007848103428427927,-0.010487138681817942,-0.22012890145824215,0.9753828448038404,0.0,0.0,0.0,0.0,0.0,0.0,0.0,0.0,0.0,-0.005853418260812759,0.003924443386495113,-0.2500632405281067,0.01,0.0,0.0,0.0,0.01,0.0,0.0,0.0,0.01,-0.05396319925785065,-0.16764132678508759,9.732879638671875,0.01,0.0,0.0,0.0,0.01,0.0,0.0,0.0,0.01
1648214159.8876183,7237,1648214159,887260388,fufi_imu_link,-0.007832499179251207,-0.01037267682805618,-0.22244562373973772,0.9748584533208228,0.0,0.0,0.0,0.0,0.0,0.0,0.0,0.0,0.0,0.0020409419666975737,0.003153271973133087,-0.25555872917175293,0.01,0.0,0.0,0.0,0.01,0.0,0.0,0.0,0.01,-0.147405743598938,-0.32089295983314514,9.549369812011719,0.01,0.0,0.0,0.0,0.01,0.0,0.0,0.0,0.01
1648214159.9168108,7238,1648214159,916441500,fufi_imu_link,-0.0077254667543695974,-0.01037657823648563,-0.22623384414128,0.9739871105679934,0.0,0.0,0.0,0.0,0.0,0.0,0.0,0.0,0.0,0.005137587431818247,-0.002337795216590166,-0.266551673412323,0.01,0.0,0.0,0.0,0.01,0.0,0.0,0.0,0.01,-0.05791591480374336,-0.16155719757080078,9.621423721313477,0.01,0.0,0.0,0.0,0.01,0.0,0.0,0.0,0.01
1648214159.9540224,7239,1648214159,953698845,fufi_imu_link,-0.0078029782023960525,-0.01038839496359942,-0.2312408305574771,0.9728097825702317,0.0,0.0,0.0,0.0,0.0,0.0,0.0,0.0,0.0,-0.004344181623309851,-0.0007531093433499336,-0.2761240303516388,0.01,0.0,0.0,0.0,0.01,0.0,0.0,0.0,0.01,0.18986442685127258,-0.3086360991001129,9.79884147644043,0.01,0.0,0.0,0.0,0.01,0.0,0.0,0.0,0.01
1648214159.9622436,7240,1648214159,961865746,fufi_imu_link,-0.007918976348868472,-0.010283790609890051,-0.23239890248590908,0.9725339498380624,0.0,0.0,0.0,0.0,0.0,0.0,0.0,0.0,0.0,0.0010554422624409199,0.005650277715176344,-0.2920696437358856,0.01,0.0,0.0,0.0,0.01,0.0,0.0,0.0,0.01,0.005844669416546822,-0.6950709819793701,9.56030559539795,0.01,0.0,0.0,0.0,0.01,0.0,0.0,0.0,0.01
1648214160.000318,7241,1648214159,999996136,fufi_imu_link,-0.008001562258721104,-0.009942987354922878,-0.2388285165162068,0.9709778842499698,0.0,0.0,0.0,0.0,0.0,0.0,0.0,0.0,0.0,-0.004720371216535568,0.01448371447622776,-0.3469918966293335,0.01,0.0,0.0,0.0,0.01,0.0,0.0,0.0,0.01,-0.04604777693748474,-0.6707544922828674,9.581634521484375,0.01,0.0,0.0,0.0,0.01,0.0,0.0,0.0,0.01
1648214160.0287395,7242,1648214160,28418549,fufi_imu_link,-0.007906566806006887,-0.009829724575155775,-0.24396874527966889,0.969701043643237,0.0,0.0,0.0,0.0,0.0,0.0,0.0,0.0,0.0,0.008113974705338478,0.007309385575354099,-0.3728947639465332,0.01,0.0,0.0,0.0,0.01,0.0,0.0,0.0,0.01,0.003382395952939987,-0.525116503238678,9.53294849395752,0.01,0.0,0.0,0.0,0.01,0.0,0.0,0.0,0.01
1648214160.0368984,7243,1648214160,36632991,fufi_imu_link,-0.007976477526327175,-0.00979373337634114,-0.24548148566733458,0.9693189871179577,0.0,0.0,0.0,0.0,0.0,0.0,0.0,0.0,0.0,0.00450302055105567,0.0008578645065426826,-0.3802993893623352,0.01,0.0,0.0,0.0,0.01,0.0,0.0,0.0,0.01,0.13643047213554382,-0.5428813099861145,9.745348930358887,0.01,0.0,0.0,0.0,0.01,0.0,0.0,0.0,0.01
1648214160.0844362,7244,1648214160,83930831,fufi_imu_link,-0.008313883558114176,-0.009721661513718472,-0.25494636720101393,0.9668705800098587,0.0,0.0,0.0,0.0,0.0,0.0,0.0,0.0,0.0,-0.01802719570696354,-0.0014101709239184856,-0.41327908635139465,0.01,0.0,0.0,0.0,0.01,0.0,0.0,0.0,0.01,-0.05241364240646362,-0.22657035291194916,9.594257354736328,0.01,0.0,0.0,0.0,0.01,0.0,0.0,0.0,0.01
1648214160.085013,7245,1648214160,84822156,fufi_imu_link,-0.008329189533238995,-0.009703714190428306,-0.2551249366210297,0.9668235253895849,0.0,0.0,0.0,0.0,0.0,0.0,0.0,0.0,0.0,-0.023208944126963615,-0.005143091082572937,-0.41465404629707336,0.01,0.0,0.0,0.0,0.01,0.0,0.0,0.0,0.01,0.16234727203845978,-0.15498840808868408,9.933340072631836,0.01,0.0,0.0,0.0,0.01,0.0,0.0,0.0,0.01
1648214160.10369,7246,1648214160,103219046,fufi_imu_link,-0.008512799969123592,-0.009728011868553429,-0.25879724633111784,0.9658451652895519,0.0,0.0,0.0,0.0,0.0,0.0,0.0,0.0,0.0,-0.02586507238447666,-0.007059276103973389,-0.4129151701927185,0.01,0.0,0.0,0.0,0.01,0.0,0.0,0.0,0.01,0.1600368320941925,-0.02225090190768242,9.457052230834961,0.01,0.0,0.0,0.0,0.01,0.0,0.0,0.0,0.01
1648214160.1124659,7247,1648214160,111786407,fufi_imu_link,-0.008460024136121895,-0.00977787072492402,-0.26052442076894605,0.9653806748732378,0.0,0.0,0.0,0.0,0.0,0.0,0.0,0.0,0.0,0.013473707251250744,-0.015090767294168472,-0.41789504885673523,0.01,0.0,0.0,0.0,0.01,0.0,0.0,0.0,0.01,0.0679890513420105,-0.16030365228652954,9.383191108703613,0.01,0.0,0.0,0.0,0.01,0.0,0.0,0.0,0.01
1648214160.158721,7248,1648214160,158403878,fufi_imu_link,-0.008838962390383107,-0.009701409669616143,-0.2698710263290884,0.9628070339078169,0.0,0.0,0.0,0.0,0.0,0.0,0.0,0.0,0.0,-0.023071274161338806,0.001497835386544466,-0.4156663417816162,0.01,0.0,0.0,0.0,0.01,0.0,0.0,0.0,0.01,0.24664542078971863,0.03555835783481598,9.610445022583008,0.01,0.0,0.0,0.0,0.01,0.0,0.0,0.0,0.01
1648214160.1590645,7249,1648214160,158821685,fufi_imu_link,-0.008821347498012489,-0.009710155926723817,-0.26995390271092606,0.9627838735206037,0.0,0.0,0.0,0.0,0.0,0.0,0.0,0.0,0.0,-0.007936498150229454,0.0051533617079257965,-0.41059181094169617,0.01,0.0,0.0,0.0,0.01,0.0,0.0,0.0,0.01,0.24201220273971558,-0.036505524069070816,9.620962142944336,0.01,0.0,0.0,0.0,0.01,0.0,0.0,0.0,0.01
1648214160.225771,7250,1648214160,224257201,fufi_imu_link,-0.008249826242534704,-0.009843870208829387,-0.2814376992826075,0.9594935434951046,0.0,0.0,0.0,0.0,0.0,0.0,0.0,0.0,0.0,0.012924990616738796,0.0032249470241367817,-0.36529332399368286,0.01,0.0,0.0,0.0,0.01,0.0,0.0,0.0,0.01,0.2656010091304779,-0.010532112792134285,9.60362434387207,0.01,0.0,0.0,0.0,0.01,0.0,0.0,0.0,0.01
1648214160.2337973,7251,1648214160,233479158,fufi_imu_link,-0.008274656454971939,-0.009897519390688945,-0.28304951012580115,0.9590185316186581,0.0,0.0,0.0,0.0,0.0,0.0,0.0,0.0,0.0,-0.01447469461709261,0.00531233474612236,-0.3640749752521515,0.01,0.0,0.0,0.0,0.01,0.0,0.0,0.0,0.01,0.5083434581756592,0.04788314551115036,9.5400972366333,0.01,0.0,0.0,0.0,0.01,0.0,0.0,0.0,0.01
1648214160.2697146,7252,1648214160,269300425,fufi_imu_link,-0.008012713916992016,-0.009975620849892834,-0.28906701659094397,0.9572233508035387,0.0,0.0,0.0,0.0,0.0,0.0,0.0,0.0,0.0,0.007948631420731544,0.003929315134882927,-0.35066652297973633,0.01,0.0,0.0,0.0,0.01,0.0,0.0,0.0,0.01,0.3835621476173401,0.1277492493391037,9.79017448425293,0.01,0.0,0.0,0.0,0.01,0.0,0.0,0.0,0.01
1648214160.2993708,7253,1648214160,299038377,fufi_imu_link,-0.007912957944323736,-0.010070059270764256,-0.29395716244964126,0.955732789877699,0.0,0.0,0.0,0.0,0.0,0.0,0.0,0.0,0.0,-0.0036024553701281548,0.00026896875351667404,-0.34370291233062744,0.01,0.0,0.0,0.0,0.01,0.0,0.0,0.0,0.01,0.38357341289520264,0.3534548878669739,9.56203556060791,0.01,0.0,0.0,0.0,0.01,0.0,0.0,0.0,0.01
1648214160.3173661,7254,1648214160,317085986,fufi_imu_link,-0.007585104571835351,-0.0103746103307931,-0.29686481509160423,0.9548330300161103,0.0,0.0,0.0,0.0,0.0,0.0,0.0,0.0,0.0,0.02463456429541111,-0.013624671846628189,-0.33745986223220825,0.01,0.0,0.0,0.0,0.01,0.0,0.0,0.0,0.01,0.4651221036911011,0.4852430820465088,9.85351276397705,0.01,0.0,0.0,0.0,0.01,0.0,0.0,0.0,0.01
1648214160.354686,7255,1648214160,354390442,fufi_imu_link,-0.007785094645850475,-0.010261855906900265,-0.30259422648930295,0.9530324342382277,0.0,0.0,0.0,0.0,0.0,0.0,0.0,0.0,0.0,-0.021065974608063698,0.0061318110674619675,-0.32165995240211487,0.01,0.0,0.0,0.0,0.01,0.0,0.0,0.0,0.01,0.39242708683013916,0.2856214642524719,9.68701457977295,0.01,0.0,0.0,0.0,0.01,0.0,0.0,0.0,0.01
1648214160.3636084,7256,1648214160,363201235,fufi_imu_link,-0.007810412024476501,-0.010231390882758404,-0.3039581415652442,0.9525984276077802,0.0,0.0,0.0,0.0,0.0,0.0,0.0,0.0,0.0,-0.021862000226974487,0.007996290922164917,-0.32449179887771606,0.01,0.0,0.0,0.0,0.01,0.0,0.0,0.0,0.01,0.2651076018810272,0.09228485822677612,9.71612548828125,0.01,0.0,0.0,0.0,0.01,0.0,0.0,0.0,0.01
1648214160.3783028,7257,1648214160,373862478,fufi_imu_link,-0.007852034984078502,-0.010135259770808171,-0.30565735377589687,0.9520552526711374,0.0,0.0,0.0,0.0,0.0,0.0,0.0,0.0,0.0,-0.01963251456618309,0.014539023861289024,-0.3343574106693268,0.01,0.0,0.0,0.0,0.01,0.0,0.0,0.0,0.01,0.19435162842273712,-0.029711220413446426,9.499592781066895,0.01,0.0,0.0,0.0,0.01,0.0,0.0,0.0,0.01
1648214160.3920298,7258,1648214160,391755382,fufi_imu_link,-0.0077207175192318305,-0.010172198592311804,-0.3085436767117365,0.9511244484598167,0.0,0.0,0.0,0.0,0.0,0.0,0.0,0.0,0.0,0.007929237559437752,0.0008125337772071362,-0.33907073736190796,0.01,0.0,0.0,0.0,0.01,0.0,0.0,0.0,0.01,0.18946057558059692,0.02925414778292179,9.600276947021484,0.01,0.0,0.0,0.0,0.01,0.0,0.0,0.0,0.01
1648214160.4299016,7259,1648214160,429093705,fufi_imu_link,-0.0077350310727893265,-0.009957611635534437,-0.3149481997601962,0.9490251033205763,0.0,0.0,0.0,0.0,0.0,0.0,0.0,0.0,0.0,-0.006905939895659685,0.012054650112986565,-0.36093664169311523,0.01,0.0,0.0,0.0,0.01,0.0,0.0,0.0,0.01,0.2184481918811798,-0.20394191145896912,9.589844703674316,0.01,0.0,0.0,0.0,0.01,0.0,0.0,0.0,0.01
1648214160.4375873,7260,1648214160,437261854,fufi_imu_link,-0.007694710998139916,-0.009901042302081341,-0.316347928978082,0.9485603558104597,0.0,0.0,0.0,0.0,0.0,0.0,0.0,0.0,0.0,0.010927681811153889,0.013534784317016602,-0.3613669276237488,0.01,0.0,0.0,0.0,0.01,0.0,0.0,0.0,0.01,0.15916690230369568,-0.2366102933883667,9.479415893554688,0.01,0.0,0.0,0.0,0.01,0.0,0.0,0.0,0.01
1648214160.4668865,7261,1648214160,466549275,fufi_imu_link,-0.007786739935639535,-0.009629378095042317,-0.32140919917266475,0.9468594238036943,0.0,0.0,0.0,0.0,0.0,0.0,0.0,0.0,0.0,-0.013517371378839016,0.016207845881581306,-0.3644634187221527,0.01,0.0,0.0,0.0,0.01,0.0,0.0,0.0,0.01,0.174085795879364,-0.23111605644226074,9.662683486938477,0.01,0.0,0.0,0.0,0.01,0.0,0.0,0.0,0.01
1648214160.503972,7262,1648214160,503704219,fufi_imu_link,-0.008107056523840155,-0.009314634225124067,-0.3280832354816043,0.9445681043840586,0.0,0.0,0.0,0.0,0.0,0.0,0.0,0.0,0.0,-0.022642044350504875,0.010752851143479347,-0.37961098551750183,0.01,0.0,0.0,0.0,0.01,0.0,0.0,0.0,0.01,0.12334924191236496,-0.3356187343597412,9.441730499267578,0.01,0.0,0.0,0.0,0.01,0.0,0.0,0.0,0.01
1648214160.512294,7263,1648214160,511929611,fufi_imu_link,-0.00811344331127761,-0.00923689723588656,-0.32957368975175405,0.944049805248909,0.0,0.0,0.0,0.0,0.0,0.0,0.0,0.0,0.0,-0.011852839961647987,0.012588880956172943,-0.3835586905479431,0.01,0.0,0.0,0.0,0.01,0.0,0.0,0.0,0.01,0.11370813846588135,-0.09005608409643173,9.382341384887695,0.01,0.0,0.0,0.0,0.01,0.0,0.0,0.0,0.01
1648214160.5502388,7264,1648214160,549957024,fufi_imu_link,-0.008092158785947143,-0.009428964451407599,-0.3364373832183626,0.9416238626801775,0.0,0.0,0.0,0.0,0.0,0.0,0.0,0.0,0.0,0.0005536264507099986,-0.00762490089982748,-0.38295605778694153,0.01,0.0,0.0,0.0,0.01,0.0,0.0,0.0,0.01,0.21347257494926453,-0.1278553158044815,9.85252571105957,0.01,0.0,0.0,0.0,0.01,0.0,0.0,0.0,0.01
1648214160.5786316,7265,1648214160,578399317,fufi_imu_link,-0.008238706237617403,-0.009481045704729355,-0.34160076415263824,0.9397612204290029,0.0,0.0,0.0,0.0,0.0,0.0,0.0,0.0,0.0,-0.010479306802153587,-0.005281239282339811,-0.38594481348991394,0.01,0.0,0.0,0.0,0.01,0.0,0.0,0.0,0.01,0.22795239090919495,-0.2268848717212677,9.849782943725586,0.01,0.0,0.0,0.0,0.01,0.0,0.0,0.0,0.01
1648214160.587029,7266,1648214160,586699976,fufi_imu_link,-0.008349753795293983,-0.00939211004200926,-0.34311402012958375,0.9392096885525789,0.0,0.0,0.0,0.0,0.0,0.0,0.0,0.0,0.0,-0.03507620468735695,0.010652758181095123,-0.38767698407173157,0.01,0.0,0.0,0.0,0.01,0.0,0.0,0.0,0.01,0.19236987829208374,-0.1202009990811348,9.651320457458496,0.01,0.0,0.0,0.0,0.01,0.0,0.0,0.0,0.01
1648214160.6339145,7267,1648214160,633658959,fufi_imu_link,-0.00788361597860717,-0.009666476208691507,-0.35156193437180383,0.9360815210960871,0.0,0.0,0.0,0.0,0.0,0.0,0.0,0.0,0.0,0.019308073446154594,-0.0006869682110846043,-0.3839521110057831,0.01,0.0,0.0,0.0,0.01,0.0,0.0,0.0,0.01,0.38350600004196167,-0.17813751101493835,9.619592666625977,0.01,0.0,0.0,0.0,0.01,0.0,0.0,0.0,0.01
1648214160.6432934,7268,1648214160,643010865,fufi_imu_link,-0.007884380620451797,-0.009669714244819308,-0.3532439659072664,0.9354480390266269,0.0,0.0,0.0,0.0,0.0,0.0,0.0,0.0,0.0,0.005031224340200424,-0.002073456533253193,-0.38460710644721985,0.01,0.0,0.0,0.0,0.01,0.0,0.0,0.0,0.01,0.17971524596214294,-0.25125136971473694,9.814946174621582,0.01,0.0,0.0,0.0,0.01,0.0,0.0,0.0,0.01
1648214160.6617653,7269,1648214160,661488578,fufi_imu_link,-0.007877104417139376,-0.009783060782111566,-0.3565554915846091,0.9341897154050631,0.0,0.0,0.0,0.0,0.0,0.0,0.0,0.0,0.0,-0.0014054621569812298,0.002515021711587906,-0.38337352871894836,0.01,0.0,0.0,0.0,0.01,0.0,0.0,0.0,0.01,0.6653189659118652,-0.004324466921389103,9.661558151245117,0.01,0.0,0.0,0.0,0.01,0.0,0.0,0.0,0.01
1648214160.708815,7270,1648214160,708473926,fufi_imu_link,-0.008111442327599368,-0.009945743229632788,-0.3647640647339766,0.931011527197018,0.0,0.0,0.0,0.0,0.0,0.0,0.0,0.0,0.0,-0.012494223192334175,-0.0043912651017308235,-0.3745621144771576,0.01,0.0,0.0,0.0,0.01,0.0,0.0,0.0,0.01,0.6103657484054565,0.03225149214267731,9.57337760925293,0.01,0.0,0.0,0.0,0.01,0.0,0.0,0.0,0.01
1648214160.7090132,7271,1648214160,708815829,fufi_imu_link,-0.008097523258369719,-0.010064484314986485,-0.36482441891385015,0.9309867236629774,0.0,0.0,0.0,0.0,0.0,0.0,0.0,0.0,0.0,-0.00818561390042305,-0.0008113933727145195,-0.375102162361145,0.01,0.0,0.0,0.0,0.01,0.0,0.0,0.0,0.01,0.6385297179222107,0.1434142142534256,9.590359687805176,0.01,0.0,0.0,0.0,0.01,0.0,0.0,0.0,0.01
1648214160.7747097,7272,1648214160,774398577,fufi_imu_link,-0.008858112110252447,-0.009659253306156284,-0.3765043543679259,0.9263221382528872,0.0,0.0,0.0,0.0,0.0,0.0,0.0,0.0,0.0,-0.03269176185131073,0.007210595067590475,-0.3831323981285095,0.01,0.0,0.0,0.0,0.01,0.0,0.0,0.0,0.01,0.5796176195144653,0.15028609335422516,9.698417663574219,0.01,0.0,0.0,0.0,0.01,0.0,0.0,0.0,0.01
1648214160.7838361,7273,1648214160,783602176,fufi_imu_link,-0.008872033713654918,-0.009689527651197734,-0.3781246085006673,0.9256614826803033,0.0,0.0,0.0,0.0,0.0,0.0,0.0,0.0,0.0,-0.021021446213126183,0.008871043100953102,-0.3797069191932678,0.01,0.0,0.0,0.0,0.01,0.0,0.0,0.0,0.01,0.5021016597747803,0.20037588477134705,9.850717544555664,0.01,0.0,0.0,0.0,0.01,0.0,0.0,0.0,0.01
1648214160.8494937,7274,1648214160,849133517,fufi_imu_link,-0.008722775065273657,-0.009893769182988288,-0.38886636966997373,0.921199746562172,0.0,0.0,0.0,0.0,0.0,0.0,0.0,0.0,0.0,0.0008563945302739739,-0.0030093546956777573,-0.35504981875419617,0.01,0.0,0.0,0.0,0.01,0.0,0.0,0.0,0.01,0.17229588329792023,0.08719561994075775,9.771015167236328,0.01,0.0,0.0,0.0,0.01,0.0,0.0,0.0,0.01
1648214160.8672965,7275,1648214160,867004389,fufi_imu_link,-0.008626954243948534,-0.00996398882802869,-0.3917534609186354,0.9199758260114115,0.0,0.0,0.0,0.0,0.0,0.0,0.0,0.0,0.0,0.007392211817204952,-0.004809859208762646,-0.351083368062973,0.01,0.0,0.0,0.0,0.01,0.0,0.0,0.0,0.01,0.13504375517368317,-0.039559122174978256,9.864519119262695,0.01,0.0,0.0,0.0,0.01,0.0,0.0,0.0,0.01
1648214160.9047272,7276,1648214160,904434526,fufi_imu_link,-0.008418631091060426,-0.009889497184734893,-0.39805488098487396,0.9172696638503335,0.0,0.0,0.0,0.0,0.0,0.0,0.0,0.0,0.0,0.004694024566560984,0.004411200527101755,-0.3665456771850586,0.01,0.0,0.0,0.0,0.01,0.0,0.0,0.0,0.01,-0.12264510244131088,-0.11775854974985123,9.484724044799805,0.01,0.0,0.0,0.0,0.01,0.0,0.0,0.0,0.01
1648214160.913502,7277,1648214160,913182410,fufi_imu_link,-0.008456545416103828,-0.009744648536946456,-0.3995462210744447,0.9166222481969591,0.0,0.0,0.0,0.0,0.0,0.0,0.0,0.0,0.0,-0.01091875322163105,0.006571379955857992,-0.3718404769897461,0.01,0.0,0.0,0.0,0.01,0.0,0.0,0.0,0.01,-0.12784142792224884,-0.32467156648635864,9.657174110412598,0.01,0.0,0.0,0.0,0.01,0.0,0.0,0.0,0.01
1648214160.9243085,7278,1648214160,923974333,fufi_imu_link,-0.008429208766452572,-0.009641188690446107,-0.401392791134207,0.9158164789660086,0.0,0.0,0.0,0.0,0.0,0.0,0.0,0.0,0.0,0.002343721454963088,0.006174737121909857,-0.37359076738357544,0.01,0.0,0.0,0.0,0.01,0.0,0.0,0.0,0.01,-0.07145681977272034,-0.2792961001396179,9.576295852661133,0.01,0.0,0.0,0.0,0.01,0.0,0.0,0.0,0.01
1648214160.9420557,7279,1648214160,941788832,fufi_imu_link,-0.008473946520516695,-0.00948972932848656,-0.4044417351262572,0.9144752703904585,0.0,0.0,0.0,0.0,0.0,0.0,0.0,0.0,0.0,-0.009012913331389427,0.005465473048388958,-0.37397700548171997,0.01,0.0,0.0,0.0,0.01,0.0,0.0,0.0,0.01,-0.09210063517093658,-0.3174780011177063,9.70738697052002,0.01,0.0,0.0,0.0,0.01,0.0,0.0,0.0,0.01
1648214160.9797175,7280,1648214160,979188659,fufi_imu_link,-0.008513117633527611,-0.009014611996201438,-0.4109145298702959,0.9115895527813982,0.0,0.0,0.0,0.0,0.0,0.0,0.0,0.0,0.0,-0.008610842749476433,0.016849838197231293,-0.378974050283432,0.01,0.0,0.0,0.0,0.01,0.0,0.0,0.0,0.01,-0.2688310742378235,-0.6575565338134766,9.467370986938477,0.01,0.0,0.0,0.0,0.01,0.0,0.0,0.0,0.01
1648214160.9876447,7281,1648214160,987198981,fufi_imu_link,-0.008608881813379156,-0.008757306351139289,-0.41228787020327473,0.9109708605782313,0.0,0.0,0.0,0.0,0.0,0.0,0.0,0.0,0.0,-0.027142906561493874,0.0291109811514616,-0.3760581314563751,0.01,0.0,0.0,0.0,0.01,0.0,0.0,0.0,0.01,-0.10208156704902649,-0.4715431332588196,9.594292640686035,0.01,0.0,0.0,0.0,0.01,0.0,0.0,0.0,0.01
1648214161.0168262,7282,1648214161,16523412,fufi_imu_link,-0.008612810154276212,-0.008573124828838274,-0.4169694587460276,0.9088392550418145,0.0,0.0,0.0,0.0,0.0,0.0,0.0,0.0,0.0,-0.002394026145339012,0.004511282779276371,-0.3509349822998047,0.01,0.0,0.0,0.0,0.01,0.0,0.0,0.0,0.01,-0.2594591975212097,-0.5098870396614075,10.175121307373047,0.01,0.0,0.0,0.0,0.01,0.0,0.0,0.0,0.01
1648214161.0540862,7283,1648214161,53731270,fufi_imu_link,-0.008720452707463484,-0.008569090043549887,-0.42187523528247145,0.9065714589902784,0.0,0.0,0.0,0.0,0.0,0.0,0.0,0.0,0.0,-0.0033076845575124025,-0.004575540777295828,-0.29059073328971863,0.01,0.0,0.0,0.0,0.01,0.0,0.0,0.0,0.01,-0.033099591732025146,-0.4619940519332886,9.544986724853516,0.01,0.0,0.0,0.0,0.01,0.0,0.0,0.0,0.01
1648214161.0623188,7284,1648214161,61929873,fufi_imu_link,-0.008761283704395963,-0.00856097404175808,-0.4228678545920348,0.9061085625817897,0.0,0.0,0.0,0.0,0.0,0.0,0.0,0.0,0.0,0.0065816910937428474,-0.012044739909470081,-0.2675963044166565,0.01,0.0,0.0,0.0,0.01,0.0,0.0,0.0,0.01,0.051895301789045334,-0.39236900210380554,9.684536933898926,0.01,0.0,0.0,0.0,0.01,0.0,0.0,0.0,0.01
1648214161.100474,7285,1648214161,100100267,fufi_imu_link,-0.009209706370023133,-0.008582282928977966,-0.42575088084435536,0.9047528464661277,0.0,0.0,0.0,0.0,0.0,0.0,0.0,0.0,0.0,-0.023098288103938103,-0.003709942102432251,-0.16665828227996826,0.01,0.0,0.0,0.0,0.01,0.0,0.0,0.0,0.01,0.7002596259117126,-0.06157288700342178,9.586806297302246,0.01,0.0,0.0,0.0,0.01,0.0,0.0,0.0,0.01
1648214161.129055,7286,1648214161,128536160,fufi_imu_link,-0.009575971684771506,-0.00842975800213639,-0.4269478397586809,0.9041862540824835,0.0,0.0,0.0,0.0,0.0,0.0,0.0,0.0,0.0,-0.02568897418677807,0.00475935498252511,-0.09283676743507385,0.01,0.0,0.0,0.0,0.01,0.0,0.0,0.0,0.01,0.5344820022583008,-0.2777261734008789,9.6933012008667,0.01,0.0,0.0,0.0,0.01,0.0,0.0,0.0,0.01
1648214161.1371608,7287,1648214161,136765163,fufi_imu_link,-0.009670529402215805,-0.008496153343890766,-0.4271372306922497,0.9040951733064356,0.0,0.0,0.0,0.0,0.0,0.0,0.0,0.0,0.0,-0.012930309399962425,0.0046532042324543,-0.05077531933784485,0.01,0.0,0.0,0.0,0.01,0.0,0.0,0.0,0.01,0.6800726652145386,-0.12257157266139984,9.589024543762207,0.01,0.0,0.0,0.0,0.01,0.0,0.0,0.0,0.01
1648214161.184761,7288,1648214161,183705785,fufi_imu_link,-0.010039097390340321,-0.00838952138229833,-0.4256851798533327,0.9047767460030122,0.0,0.0,0.0,0.0,0.0,0.0,0.0,0.0,0.0,-0.009502516128122807,0.001104522030800581,0.06842063367366791,0.01,0.0,0.0,0.0,0.01,0.0,0.0,0.0,0.01,0.5846772193908691,-0.6232150197029114,9.478662490844727,0.01,0.0,0.0,0.0,0.01,0.0,0.0,0.0,0.01
1648214161.20374,7289,1648214161,203338883,fufi_imu_link,-0.010120927485565841,-0.008500338790275367,-0.42485474516734256,0.9051650438323803,0.0,0.0,0.0,0.0,0.0,0.0,0.0,0.0,0.0,0.011169140227138996,-0.004801446571946144,0.09313414990901947,0.01,0.0,0.0,0.0,0.01,0.0,0.0,0.0,0.01,0.5834315419197083,-0.5854085683822632,9.546318054199219,0.01,0.0,0.0,0.0,0.01,0.0,0.0,0.0,0.01
1648214161.211965,7290,1648214161,211505513,fufi_imu_link,-0.010183670130071246,-0.008544143745356291,-0.42447503753632193,0.9053420530268539,0.0,0.0,0.0,0.0,0.0,0.0,0.0,0.0,0.0,0.03133050724864006,-0.0027335803024470806,0.10181824862957001,0.01,0.0,0.0,0.0,0.01,0.0,0.0,0.0,0.01,0.4457225501537323,-0.7155776619911194,9.471071243286133,0.01,0.0,0.0,0.0,0.01,0.0,0.0,0.0,0.01
1648214161.2587652,7291,1648214161,258472061,fufi_imu_link,-0.009910675534569332,-0.009003857979389563,-0.42260976471582096,0.9062128314136664,0.0,0.0,0.0,0.0,0.0,0.0,0.0,0.0,0.0,0.02429864928126335,-0.012876465916633606,0.08724930137395859,0.01,0.0,0.0,0.0,0.01,0.0,0.0,0.0,0.01,0.2851646840572357,-0.5184261798858643,10.039310455322266,0.01,0.0,0.0,0.0,0.01,0.0,0.0,0.0,0.01
1648214161.2590313,7292,1648214161,258857869,fufi_imu_link,-0.009941666274649975,-0.008970280350465678,-0.42259582841250387,0.906219323977627,0.0,0.0,0.0,0.0,0.0,0.0,0.0,0.0,0.0,0.013626422733068466,-0.00970232579857111,0.07611146569252014,0.01,0.0,0.0,0.0,0.01,0.0,0.0,0.0,0.01,0.1678733229637146,-0.27813881635665894,9.845001220703125,0.01,0.0,0.0,0.0,0.01,0.0,0.0,0.0,0.01
1648214161.2866347,7293,1648214161,286313144,fufi_imu_link,-0.01022494584443586,-0.00862252608396052,-0.42213569662725453,0.906433977827085,0.0,0.0,0.0,0.0,0.0,0.0,0.0,0.0,0.0,-0.023463979363441467,0.01481837872415781,0.03729434311389923,0.01,0.0,0.0,0.0,0.01,0.0,0.0,0.0,0.01,0.26878389716148376,-0.38932204246520996,9.431246757507324,0.01,0.0,0.0,0.0,0.01,0.0,0.0,0.0,0.01
1648214161.3248076,7294,1648214161,324379789,fufi_imu_link,-0.009887850894982243,-0.008842188753780367,-0.42218239808884167,0.9064138507584028,0.0,0.0,0.0,0.0,0.0,0.0,0.0,0.0,0.0,0.02316831797361374,-0.0014671159442514181,-0.0029802341014146805,0.01,0.0,0.0,0.0,0.01,0.0,0.0,0.0,0.01,0.3448248505592346,-0.26712965965270996,9.63780403137207,0.01,0.0,0.0,0.0,0.01,0.0,0.0,0.0,0.01
1648214161.333919,7295,1648214161,333576231,fufi_imu_link,-0.009869678285913855,-0.008937761492221393,-0.4222225880948426,0.9063943909648458,0.0,0.0,0.0,0.0,0.0,0.0,0.0,0.0,0.0,0.011194402351975441,-0.004386875778436661,-0.009791465476155281,0.01,0.0,0.0,0.0,0.01,0.0,0.0,0.0,0.01,0.4590824246406555,-0.08085696399211884,9.586973190307617,0.01,0.0,0.0,0.0,0.01,0.0,0.0,0.0,0.01
1648214161.399405,7296,1648214161,399126451,fufi_imu_link,-0.010129657533760146,-0.008294748990618538,-0.42358578009053127,0.9057613781137543,0.0,0.0,0.0,0.0,0.0,0.0,0.0,0.0,0.0,-0.019295066595077515,0.015882786363363266,-0.045497674494981766,0.01,0.0,0.0,0.0,0.01,0.0,0.0,0.0,0.01,0.37057626247406006,0.29429933428764343,9.410979270935059,0.01,0.0,0.0,0.0,0.01,0.0,0.0,0.0,0.01
1648214161.417436,7297,1648214161,417053531,fufi_imu_link,-0.009989378220339486,-0.008204891730038221,-0.42394233680005283,0.9055969231081674,0.0,0.0,0.0,0.0,0.0,0.0,0.0,0.0,0.0,-0.005202468018978834,0.017533928155899048,-0.043468914926052094,0.01,0.0,0.0,0.0,0.01,0.0,0.0,0.0,0.01,0.2738087773323059,0.38855740427970886,9.46118450164795,0.01,0.0,0.0,0.0,0.01,0.0,0.0,0.0,0.01
1648214161.4548757,7298,1648214161,454482604,fufi_imu_link,-0.009959284794912251,-0.008471051665997787,-0.4244787258229566,0.9053435067717476,0.0,0.0,0.0,0.0,0.0,0.0,0.0,0.0,0.0,-0.00032282641041092575,-0.010756285861134529,-0.031662583351135254,0.01,0.0,0.0,0.0,0.01,0.0,0.0,0.0,0.01,0.32120612263679504,0.431732177734375,9.670644760131836,0.01,0.0,0.0,0.0,0.01,0.0,0.0,0.0,0.01
1648214161.4636643,7299,1648214161,463250057,fufi_imu_link,-0.009838750095017739,-0.00857562473305918,-0.42459929374781225,0.9052873010298247,0.0,0.0,0.0,0.0,0.0,0.0,0.0,0.0,0.0,0.00924457423388958,-0.005308595485985279,-0.030159465968608856,0.01,0.0,0.0,0.0,0.01,0.0,0.0,0.0,0.01,0.30516597628593445,0.32635167241096497,9.638914108276367,0.01,0.0,0.0,0.0,0.01,0.0,0.0,0.0,0.01
1648214161.4742477,7300,1648214161,473962056,fufi_imu_link,-0.009738823142690157,-0.008619964614686183,-0.42472875810644084,0.9052272275905081,0.0,0.0,0.0,0.0,0.0,0.0,0.0,0.0,0.0,0.004279423505067825,0.0003133895806968212,-0.026511291041970253,0.01,0.0,0.0,0.0,0.01,0.0,0.0,0.0,0.01,0.2202422320842743,0.22092869877815247,9.437491416931152,0.01,0.0,0.0,0.0,0.01,0.0,0.0,0.0,0.01
1648214161.492257,7301,1648214161,491885731,fufi_imu_link,-0.009731718791680177,-0.008551679513055814,-0.424906789677907,0.9051443987080076,0.0,0.0,0.0,0.0,0.0,0.0,0.0,0.0,0.0,-0.012143056839704514,0.00653493870049715,-0.021626293659210205,0.01,0.0,0.0,0.0,0.01,0.0,0.0,0.0,0.01,0.1988276094198227,0.219945028424263,9.535693168640137,0.01,0.0,0.0,0.0,0.01,0.0,0.0,0.0,0.01
1648214161.5010011,7302,1648214161,500735012,fufi_imu_link,-0.00967445878532641,-0.008605074374708213,-0.42493268959176,0.9051323477031022,0.0,0.0,0.0,0.0,0.0,0.0,0.0,0.0,0.0,-0.008545655757188797,-0.0002093445509672165,-0.0060284920036792755,0.01,0.0,0.0,0.0,0.01,0.0,0.0,0.0,0.01,0.32435518503189087,0.3389381170272827,9.846475601196289,0.01,0.0,0.0,0.0,0.01,0.0,0.0,0.0,0.01
1648214161.5294425,7303,1648214161,529154662,fufi_imu_link,-0.009608766085879704,-0.008558796915900817,-0.4248594317888985,0.905167874943468,0.0,0.0,0.0,0.0,0.0,0.0,0.0,0.0,0.0,-0.00301200058311224,0.004068493843078613,0.005851799622178078,0.01,0.0,0.0,0.0,0.01,0.0,0.0,0.0,0.01,0.183148592710495,0.2225695252418518,9.611474990844727,0.01,0.0,0.0,0.0,0.01,0.0,0.0,0.0,0.01
1648214161.5376656,7304,1648214161,537301131,fufi_imu_link,-0.009465797034105834,-0.008588670250498242,-0.4248243735167781,0.9051855528541728,0.0,0.0,0.0,0.0,0.0,0.0,0.0,0.0,0.0,0.009082951582968235,0.0012338138185441494,0.009806500747799873,0.01,0.0,0.0,0.0,0.01,0.0,0.0,0.0,0.01,0.1170007660984993,0.30750441551208496,9.548073768615723,0.01,0.0,0.0,0.0,0.01,0.0,0.0,0.0,0.01
1648214161.5669296,7305,1648214161,566602783,fufi_imu_link,-0.009482389347324881,-0.008477142698842232,-0.42451433448411274,0.9053318740447838,0.0,0.0,0.0,0.0,0.0,0.0,0.0,0.0,0.0,-0.010164841078221798,0.005775378085672855,0.023620184510946274,0.01,0.0,0.0,0.0,0.01,0.0,0.0,0.0,0.01,0.1972896307706833,0.2525525689125061,9.676651954650879,0.01,0.0,0.0,0.0,0.01,0.0,0.0,0.0,0.01
1648214161.5938308,7306,1648214161,593539672,fufi_imu_link,-0.00951437957918538,-0.008480235159709873,-0.42415810299287904,0.9054984626482486,0.0,0.0,0.0,0.0,0.0,0.0,0.0,0.0,0.0,-0.006429466884583235,-0.004280929919332266,0.0292954258620739,0.01,0.0,0.0,0.0,0.01,0.0,0.0,0.0,0.01,0.07514327764511108,0.14717328548431396,9.64027214050293,0.01,0.0,0.0,0.0,0.01,0.0,0.0,0.0,0.01
1648214161.6123009,7307,1648214161,612002053,fufi_imu_link,-0.009407362661410758,-0.008485627189832087,-0.42393663463053227,0.9056032384422499,0.0,0.0,0.0,0.0,0.0,0.0,0.0,0.0,0.0,0.007305510342121124,-0.001945354975759983,0.026460593566298485,0.01,0.0,0.0,0.0,0.01,0.0,0.0,0.0,0.01,0.005321169272065163,0.037087198346853256,9.404916763305664,0.01,0.0,0.0,0.0,0.01,0.0,0.0,0.0,0.01
1648214161.6789105,7308,1648214161,678484395,fufi_imu_link,-0.009591408530664857,-0.007947323918424879,-0.42440882386429424,0.9053849983024128,0.0,0.0,0.0,0.0,0.0,0.0,0.0,0.0,0.0,-0.011295237578451633,0.010383125394582748,-0.015486212447285652,0.01,0.0,0.0,0.0,0.01,0.0,0.0,0.0,0.01,-0.039013151079416275,-0.19791120290756226,9.523445129394531,0.01,0.0,0.0,0.0,0.01,0.0,0.0,0.0,0.01
1648214161.6870918,7309,1648214161,686816493,fufi_imu_link,-0.009626484116546182,-0.007870244074753617,-0.42448769822169813,0.905348321984529,0.0,0.0,0.0,0.0,0.0,0.0,0.0,0.0,0.0,0.00164613570086658,-0.004095941781997681,-0.021209383383393288,0.01,0.0,0.0,0.0,0.01,0.0,0.0,0.0,0.01,-0.061198461800813675,-0.3770795464515686,9.532083511352539,0.01,0.0,0.0,0.0,0.01,0.0,0.0,0.0,0.01
1648214161.7339926,7310,1648214161,733712435,fufi_imu_link,-0.00978335253504613,-0.007552118247229907,-0.425151624494357,0.9050377603796232,0.0,0.0,0.0,0.0,0.0,0.0,0.0,0.0,0.0,-0.011409446597099304,0.008571287617087364,-0.031102068722248077,0.01,0.0,0.0,0.0,0.01,0.0,0.0,0.0,0.01,0.11799382418394089,-0.17636431753635406,9.603324890136719,0.01,0.0,0.0,0.0,0.01,0.0,0.0,0.0,0.01
1648214161.7536001,7311,1648214161,753364476,fufi_imu_link,-0.009997767178629706,-0.007374327984014351,-0.4253524011650692,0.9049425389279344,0.0,0.0,0.0,0.0,0.0,0.0,0.0,0.0,0.0,-0.02623959816992283,0.009751135483384132,-0.022273628041148186,0.01,0.0,0.0,0.0,0.01,0.0,0.0,0.0,0.01,0.2986149191856384,-0.16462934017181396,9.405733108520508,0.01,0.0,0.0,0.0,0.01,0.0,0.0,0.0,0.01
1648214161.7618847,7312,1648214161,761612811,fufi_imu_link,-0.010023340168456584,-0.007412813579475171,-0.42541676093967085,0.9049116876017805,0.0,0.0,0.0,0.0,0.0,0.0,0.0,0.0,0.0,0.003682191949337721,-0.0016037793830037117,-0.017361406236886978,0.01,0.0,0.0,0.0,0.01,0.0,0.0,0.0,0.01,0.3506806492805481,-0.19614484906196594,9.385947227478027,0.01,0.0,0.0,0.0,0.01,0.0,0.0,0.0,0.01
1648214161.8087401,7313,1648214161,808420603,fufi_imu_link,-0.009868228516183955,-0.006968404268341171,-0.42557151734452414,0.904844154002768,0.0,0.0,0.0,0.0,0.0,0.0,0.0,0.0,0.0,-0.0006862480659037828,0.021170692518353462,-0.007088311016559601,0.01,0.0,0.0,0.0,0.01,0.0,0.0,0.0,0.01,0.3028135597705841,-0.24672505259513855,9.615521430969238,0.01,0.0,0.0,0.0,0.01,0.0,0.0,0.0,0.01
1648214161.8090825,7314,1648214161,808822989,fufi_imu_link,-0.009914537677127017,-0.007025861975700825,-0.42557164618748183,0.9048431428526296,0.0,0.0,0.0,0.0,0.0,0.0,0.0,0.0,0.0,0.02212323062121868,0.015074744820594788,-0.0017908569425344467,0.01,0.0,0.0,0.0,0.01,0.0,0.0,0.0,0.01,0.503196120262146,-0.2044331282377243,9.875306129455566,0.01,0.0,0.0,0.0,0.01,0.0,0.0,0.0,0.01
1648214161.8367875,7315,1648214161,836384815,fufi_imu_link,-0.009584317892736262,-0.007346951333917055,-0.42532936611999234,0.9049580617203173,0.0,0.0,0.0,0.0,0.0,0.0,0.0,0.0,0.0,0.028968997299671173,-0.009730830788612366,0.019132433459162712,0.01,0.0,0.0,0.0,0.01,0.0,0.0,0.0,0.01,0.2815212309360504,0.04412967339158058,9.902307510375977,0.01,0.0,0.0,0.0,0.01,0.0,0.0,0.0,0.01
1648214161.8746896,7316,1648214161,874372450,fufi_imu_link,-0.009498742434306739,-0.007256622404790445,-0.42489263279689865,0.9051648280387176,0.0,0.0,0.0,0.0,0.0,0.0,0.0,0.0,0.0,0.0019453323911875486,0.004020040854811668,0.025436080992221832,0.01,0.0,0.0,0.0,0.01,0.0,0.0,0.0,0.01,0.05343703180551529,-0.07702906429767609,9.471088409423828,0.01,0.0,0.0,0.0,0.01,0.0,0.0,0.0,0.01
1648214161.8838036,7317,1648214161,883567870,fufi_imu_link,-0.009560972898119642,-0.00710189870885518,-0.42481973907668125,0.9051996134128599,0.0,0.0,0.0,0.0,0.0,0.0,0.0,0.0,0.0,-0.025114424526691437,0.020030993968248367,0.01790585368871689,0.01,0.0,0.0,0.0,0.01,0.0,0.0,0.0,0.01,0.11950583755970001,-0.12868967652320862,9.487724304199219,0.01,0.0,0.0,0.0,0.01,0.0,0.0,0.0,0.01
1648214161.9495091,7318,1648214161,949132676,fufi_imu_link,-0.009689536298090768,-0.006855134008452047,-0.42545583323936575,0.9049013504170779,0.0,0.0,0.0,0.0,0.0,0.0,0.0,0.0,0.0,-0.00825313851237297,0.003841244615614414,-0.021319109946489334,0.01,0.0,0.0,0.0,0.01,0.0,0.0,0.0,0.01,0.019264094531536102,0.04767393693327904,9.547569274902344,0.01,0.0,0.0,0.0,0.01,0.0,0.0,0.0,0.01
