Time,header.seq,header.stamp.secs,header.stamp.nsecs,header.frame_id,orientation.x,orientation.y,orientation.z,orientation.w,orientation_covariance_0,orientation_covariance_1,orientation_covariance_2,orientation_covariance_3,orientation_covariance_4,orientation_covariance_5,orientation_covariance_6,orientation_covariance_7,orientation_covariance_8,angular_velocity.x,angular_velocity.y,angular_velocity.z,angular_velocity_covariance_0,angular_velocity_covariance_1,angular_velocity_covariance_2,angular_velocity_covariance_3,angular_velocity_covariance_4,angular_velocity_covariance_5,angular_velocity_covariance_6,angular_velocity_covariance_7,angular_velocity_covariance_8,linear_acceleration.x,linear_acceleration.y,linear_acceleration.z,linear_acceleration_covariance_0,linear_acceleration_covariance_1,linear_acceleration_covariance_2,linear_acceleration_covariance_3,linear_acceleration_covariance_4,linear_acceleration_covariance_5,linear_acceleration_covariance_6,linear_acceleration_covariance_7,linear_acceleration_covariance_8
1648214345.3204558,14583,1648214345,319495227,fufi_imu_link,-0.0034247234956063027,-0.010617133114925986,0.014573847587024175,0.9998315611741355,0.0,0.0,0.0,0.0,0.0,0.0,0.0,0.0,0.0,0.00015989624080248177,0.00023353612050414085,0.0007121246308088303,0.01,0.0,0.0,0.0,0.01,0.0,0.0,0.0,0.01,0.1988428682088852,-0.0936901643872261,9.667461395263672,0.01,0.0,0.0,0.0,0.01,0.0,0.0,0.0,0.01
1648214345.338445,14584,1648214345,338106755,fufi_imu_link,-0.0034439227460238723,-0.010614350897137215,0.014578584070837215,0.9998314557152327,0.0,0.0,0.0,0.0,0.0,0.0,0.0,0.0,0.0,-0.0013305161846801639,-6.012618541717529e-06,0.0005143303424119949,0.01,0.0,0.0,0.0,0.01,0.0,0.0,0.0,0.01,0.191013902425766,-0.09481299668550491,9.600868225097656,0.01,0.0,0.0,0.0,0.01,0.0,0.0,0.0,0.01
1648214345.4050028,14585,1648214345,404614629,fufi_imu_link,-0.0034484716383404415,-0.0106193644693238,0.014602560774790775,0.9998310369059593,0.0,0.0,0.0,0.0,0.0,0.0,0.0,0.0,0.0,6.120349280536175e-05,-0.00014671450480818748,0.0007179770618677139,0.01,0.0,0.0,0.0,0.01,0.0,0.0,0.0,0.01,0.20458698272705078,-0.09415877610445023,9.649784088134766,0.01,0.0,0.0,0.0,0.01,0.0,0.0,0.0,0.01
1648214345.4130929,14586,1648214345,412763771,fufi_imu_link,-0.0034430622409073277,-0.010616465115825006,0.014602167307758495,0.9998310920854412,0.0,0.0,0.0,0.0,0.0,0.0,0.0,0.0,0.0,0.0004946669796481729,-0.0004892158322036266,-9.91038978099823e-05,0.01,0.0,0.0,0.0,0.01,0.0,0.0,0.0,0.01,0.18438446521759033,-0.055943913757801056,9.594982147216797,0.01,0.0,0.0,0.0,0.01,0.0,0.0,0.0,0.01
1648214345.4514723,14587,1648214345,450860970,fufi_imu_link,-0.003428424515071221,-0.010637417263525907,0.014632325221410811,0.9998304787902402,0.0,0.0,0.0,0.0,0.0,0.0,0.0,0.0,0.0,0.0007719595450907946,-0.001240819226950407,0.0015705116093158722,0.01,0.0,0.0,0.0,0.01,0.0,0.0,0.0,0.01,0.19529682397842407,-0.0694086030125618,9.651345252990723,0.01,0.0,0.0,0.0,0.01,0.0,0.0,0.0,0.01
1648214345.4795682,14588,1648214345,479229361,fufi_imu_link,-0.0034248171640620956,-0.010615303950440264,0.014636266250145098,0.9998306684932641,0.0,0.0,0.0,0.0,0.0,0.0,0.0,0.0,0.0,0.00011733814608305693,0.000861690379679203,0.0002787243574857712,0.01,0.0,0.0,0.0,0.01,0.0,0.0,0.0,0.01,0.1658915877342224,-0.06012827530503273,9.633162498474121,0.01,0.0,0.0,0.0,0.01,0.0,0.0,0.0,0.01
1648214345.4879837,14589,1648214345,487645273,fufi_imu_link,-0.0034353944669589646,-0.010621931920496512,0.014638388583770775,0.9998305307434873,0.0,0.0,0.0,0.0,0.0,0.0,0.0,0.0,0.0,-0.0011006440035998821,5.325768142938614e-05,0.0005072355270385742,0.01,0.0,0.0,0.0,0.01,0.0,0.0,0.0,0.01,0.22873403131961823,-0.09200581908226013,9.604607582092285,0.01,0.0,0.0,0.0,0.01,0.0,0.0,0.0,0.01
1648214345.5065036,14590,1648214345,506256120,fufi_imu_link,-0.0034457203391491708,-0.010629458399434927,0.014627706696625683,0.9998305715581398,0.0,0.0,0.0,0.0,0.0,0.0,0.0,0.0,0.0,-0.0009555334108881652,-0.000596068799495697,-0.0011411625891923904,0.01,0.0,0.0,0.0,0.01,0.0,0.0,0.0,0.01,0.2103816568851471,-0.0756247341632843,9.618463516235352,0.01,0.0,0.0,0.0,0.01,0.0,0.0,0.0,0.01
1648214345.5353723,14591,1648214345,534593242,fufi_imu_link,-0.003438620033189232,-0.010627893552134999,0.014627665758808044,0.9998306132367424,0.0,0.0,0.0,0.0,0.0,0.0,0.0,0.0,0.0,0.0007547977147623897,8.574966341257095e-05,-1.3338401913642883e-05,0.01,0.0,0.0,0.0,0.01,0.0,0.0,0.0,0.01,0.20335134863853455,-0.08315535634756088,9.656373977661133,0.01,0.0,0.0,0.0,0.01,0.0,0.0,0.0,0.01
1648214345.5363712,14592,1648214345,535502460,fufi_imu_link,-0.003435549624146481,-0.010633845261520763,0.014627950776962394,0.9998305563393234,0.0,0.0,0.0,0.0,0.0,0.0,0.0,0.0,0.0,-0.0004694691451732069,0.000298365019261837,0.0007577408105134964,0.01,0.0,0.0,0.0,0.01,0.0,0.0,0.0,0.01,0.22676926851272583,-0.05675124377012253,9.604364395141602,0.01,0.0,0.0,0.0,0.01,0.0,0.0,0.0,0.01
1648214345.554912,14593,1648214345,554206307,fufi_imu_link,-0.003425994820059649,-0.010635712906501263,0.014637364870465453,0.9998304314833153,0.0,0.0,0.0,0.0,0.0,0.0,0.0,0.0,0.0,0.0011209751246497035,-0.0007210648618638515,0.0009895730763673782,0.01,0.0,0.0,0.0,0.01,0.0,0.0,0.0,0.01,0.18595442175865173,-0.0723138153553009,9.634787559509277,0.01,0.0,0.0,0.0,0.01,0.0,0.0,0.0,0.01
1648214345.5635085,14594,1648214345,562793561,fufi_imu_link,-0.0034288450894635826,-0.010631903234158833,0.014637960107729168,0.9998304535164232,0.0,0.0,0.0,0.0,0.0,0.0,0.0,0.0,0.0,-0.000542257446795702,0.0010142866522073746,0.0001472141593694687,0.01,0.0,0.0,0.0,0.01,0.0,0.0,0.0,0.01,0.2057971954345703,-0.07081720232963562,9.631723403930664,0.01,0.0,0.0,0.0,0.01,0.0,0.0,0.0,0.01
1648214345.6102405,14595,1648214345,609241910,fufi_imu_link,-0.003394729196256757,-0.010650999385202189,0.01466348192267376,0.9998299927106028,0.0,0.0,0.0,0.0,0.0,0.0,0.0,0.0,0.0,0.0014002998359501362,-0.0009429045021533966,0.0010813605040311813,0.01,0.0,0.0,0.0,0.01,0.0,0.0,0.0,0.01,0.19523978233337402,-0.062190260738134384,9.606954574584961,0.01,0.0,0.0,0.0,0.01,0.0,0.0,0.0,0.01
1648214345.6107876,14596,1648214345,610160066,fufi_imu_link,-0.0033948988864844058,-0.010656799705815196,0.014663343668301961,0.9998299323555213,0.0,0.0,0.0,0.0,0.0,0.0,0.0,0.0,0.0,-0.002350136172026396,-0.0006500561721622944,-0.00021505914628505707,0.01,0.0,0.0,0.0,0.01,0.0,0.0,0.0,0.01,0.2245761752128601,-0.06501059979200363,9.595075607299805,0.01,0.0,0.0,0.0,0.01,0.0,0.0,0.0,0.01
1648214345.676358,14597,1648214345,675509727,fufi_imu_link,-0.003371979514878789,-0.010672746683679712,0.014700666296895433,0.9998292917507492,0.0,0.0,0.0,0.0,0.0,0.0,0.0,0.0,0.0,0.0007146422867663205,-0.0006450451910495758,0.0011320170015096664,0.01,0.0,0.0,0.0,0.01,0.0,0.0,0.0,0.01,0.18744215369224548,-0.06928062438964844,9.666278839111328,0.01,0.0,0.0,0.0,0.01,0.0,0.0,0.0,0.01
1648214345.6855514,14598,1648214345,684966849,fufi_imu_link,-0.0033766747888525567,-0.010678384904905568,0.014703356272911304,0.9998291761483582,0.0,0.0,0.0,0.0,0.0,0.0,0.0,0.0,0.0,-0.0015073457034304738,0.00037492066621780396,0.0005973894149065018,0.01,0.0,0.0,0.0,0.01,0.0,0.0,0.0,0.01,0.2321360856294632,-0.0587456151843071,9.597695350646973,0.01,0.0,0.0,0.0,0.01,0.0,0.0,0.0,0.01
1648214345.7315378,14599,1648214345,730828171,fufi_imu_link,-0.0033718409808225097,-0.010707273461568158,0.01471467539535062,0.9998287169867792,0.0,0.0,0.0,0.0,0.0,0.0,0.0,0.0,0.0,0.0002815196639858186,-0.0012537403963506222,0.0004856158047914505,0.01,0.0,0.0,0.0,0.01,0.0,0.0,0.0,0.01,0.206712543964386,-0.07554899156093597,9.652223587036133,0.01,0.0,0.0,0.0,0.01,0.0,0.0,0.0,0.01
1648214345.7510808,14600,1648214345,750252477,fufi_imu_link,-0.003370819601061519,-0.010714732714745807,0.014724893854666968,0.9998284900816928,0.0,0.0,0.0,0.0,0.0,0.0,0.0,0.0,0.0,0.0006239719223231077,-0.0008615227416157722,0.0010368898510932922,0.01,0.0,0.0,0.0,0.01,0.0,0.0,0.0,0.01,0.2016693353652954,-0.08709114044904709,9.607656478881836,0.01,0.0,0.0,0.0,0.01,0.0,0.0,0.0,0.01
1648214345.7688751,14601,1648214345,767917684,fufi_imu_link,-0.003369292766359275,-0.010705141050844467,0.014729717248249254,0.9998285269240536,0.0,0.0,0.0,0.0,0.0,0.0,0.0,0.0,0.0,0.0009081231546588242,0.0006616073660552502,0.0005295686423778534,0.01,0.0,0.0,0.0,0.01,0.0,0.0,0.0,0.01,0.1909790337085724,-0.09207825362682343,9.627796173095703,0.01,0.0,0.0,0.0,0.01,0.0,0.0,0.0,0.01
1648214345.8063512,14602,1648214345,805676102,fufi_imu_link,-0.003374421139985448,-0.010715849565789984,0.014718398604597841,0.9998285616007224,0.0,0.0,0.0,0.0,0.0,0.0,0.0,0.0,0.0,-0.00020367608522064984,-0.0007901662029325962,-0.0006018374115228653,0.01,0.0,0.0,0.0,0.01,0.0,0.0,0.0,0.01,0.18954187631607056,-0.07428741455078125,9.664642333984375,0.01,0.0,0.0,0.0,0.01,0.0,0.0,0.0,0.01
1648214345.8149385,14603,1648214345,813352627,fufi_imu_link,-0.003371385234356038,-0.010705319609625544,0.014717874268636518,0.9998286923621815,0.0,0.0,0.0,0.0,0.0,0.0,0.0,0.0,0.0,0.0016217308584600687,0.00030549755319952965,-0.0001703258603811264,0.01,0.0,0.0,0.0,0.01,0.0,0.0,0.0,0.01,0.16896702349185944,-0.07936303317546844,9.597956657409668,0.01,0.0,0.0,0.0,0.01,0.0,0.0,0.0,0.01
1648214345.8431983,14604,1648214345,842679574,fufi_imu_link,-0.003381193099353646,-0.010695379175344742,0.01471552818490462,0.9998288001591872,0.0,0.0,0.0,0.0,0.0,0.0,0.0,0.0,0.0,-0.0007016645977273583,0.0006812955252826214,-0.0001498013734817505,0.01,0.0,0.0,0.0,0.01,0.0,0.0,0.0,0.01,0.20451590418815613,-0.06579581648111343,9.623222351074219,0.01,0.0,0.0,0.0,0.01,0.0,0.0,0.0,0.01
1648214345.870161,14605,1648214345,869783840,fufi_imu_link,-0.0033980042282149713,-0.01069908168802098,0.01474124807260077,0.9998283246755717,0.0,0.0,0.0,0.0,0.0,0.0,0.0,0.0,0.0,-0.0007849539397284389,-0.0006846468895673752,0.0018980298191308975,0.01,0.0,0.0,0.0,0.01,0.0,0.0,0.0,0.01,0.18252608180046082,-0.09100581705570221,9.59792709350586,0.01,0.0,0.0,0.0,0.01,0.0,0.0,0.0,0.01
1648214345.889186,14606,1648214345,888472861,fufi_imu_link,-0.003394626489998414,-0.010684754247232156,0.014757585057892944,0.9998282483611517,0.0,0.0,0.0,0.0,0.0,0.0,0.0,0.0,0.0,0.0009791889460757375,0.0004752441309392452,0.001729751005768776,0.01,0.0,0.0,0.0,0.01,0.0,0.0,0.0,0.01,0.16802455484867096,-0.08944045752286911,9.669022560119629,0.01,0.0,0.0,0.0,0.01,0.0,0.0,0.0,0.01
1648214345.9182775,14607,1648214345,917613454,fufi_imu_link,-0.003392391634357722,-0.010676619097191505,0.014750221501723096,0.9998284515102093,0.0,0.0,0.0,0.0,0.0,0.0,0.0,0.0,0.0,0.00037126833922229707,-0.0001325574703514576,-0.0005147196352481842,0.01,0.0,0.0,0.0,0.01,0.0,0.0,0.0,0.01,0.1655232161283493,-0.08010455965995789,9.595830917358398,0.01,0.0,0.0,0.0,0.01,0.0,0.0,0.0,0.01
1648214345.9556692,14608,1648214345,954658516,fufi_imu_link,-0.003380572760995811,-0.010710194345793428,0.01475758867020601,0.9998280237328437,0.0,0.0,0.0,0.0,0.0,0.0,0.0,0.0,0.0,0.0007032761350274086,-0.0018198532052338123,0.00038320571184158325,0.01,0.0,0.0,0.0,0.01,0.0,0.0,0.0,0.01,0.20566266775131226,-0.07443021982908249,9.63371467590332,0.01,0.0,0.0,0.0,0.01,0.0,0.0,0.0,0.01
1648214345.963736,14609,1648214345,963148181,fufi_imu_link,-0.0033798841235530134,-0.010717189188570817,0.01476161303623321,0.9998278916992546,0.0,0.0,0.0,0.0,0.0,0.0,0.0,0.0,0.0,0.0012188395485281944,-0.0015014891978353262,0.0009192842990159988,0.01,0.0,0.0,0.0,0.01,0.0,0.0,0.0,0.01,0.2084677666425705,-0.08579772710800171,9.654311180114746,0.01,0.0,0.0,0.0,0.01,0.0,0.0,0.0,0.01
1648214346.0022664,14610,1648214346,1311391,fufi_imu_link,-0.0034057199639609265,-0.010698181648119394,0.014766054976755889,0.9998279419987094,0.0,0.0,0.0,0.0,0.0,0.0,0.0,0.0,0.0,-0.001264017540961504,0.0007534422911703587,0.0002471804618835449,0.01,0.0,0.0,0.0,0.01,0.0,0.0,0.0,0.01,0.1855815052986145,-0.07380376011133194,9.611231803894043,0.01,0.0,0.0,0.0,0.01,0.0,0.0,0.0,0.01
1648214346.0297294,14611,1648214346,29315460,fufi_imu_link,-0.003410018036694118,-0.010681133908294747,0.014770896569480163,0.9998280380995305,0.0,0.0,0.0,0.0,0.0,0.0,0.0,0.0,0.0,-0.00019993886235170066,0.0012686057016253471,0.00035157427191734314,0.01,0.0,0.0,0.0,0.01,0.0,0.0,0.0,0.01,0.2074274718761444,-0.07333271950483322,9.634303092956543,0.01,0.0,0.0,0.0,0.01,0.0,0.0,0.0,0.01
1648214346.0380006,14612,1648214346,37661790,fufi_imu_link,-0.003409900165190778,-0.010673790965050571,0.01476993454173237,0.9998281311310114,0.0,0.0,0.0,0.0,0.0,0.0,0.0,0.0,0.0,0.0013061081990599632,0.00018269242718815804,-0.0002630334347486496,0.01,0.0,0.0,0.0,0.01,0.0,0.0,0.0,0.01,0.1792386770248413,-0.08871539682149887,9.622136116027832,0.01,0.0,0.0,0.0,0.01,0.0,0.0,0.0,0.01
1648214346.084798,14613,1648214346,84462933,fufi_imu_link,-0.003448747594851317,-0.010695815093798883,0.014777030294140745,0.999827657676658,0.0,0.0,0.0,0.0,0.0,0.0,0.0,0.0,0.0,-0.0015116912545636296,-0.000939507968723774,0.00031445175409317017,0.01,0.0,0.0,0.0,0.01,0.0,0.0,0.0,0.01,0.20356251299381256,-0.08392602950334549,9.652718544006348,0.01,0.0,0.0,0.0,0.01,0.0,0.0,0.0,0.01
1648214346.0850976,14614,1648214346,84778159,fufi_imu_link,-0.003444114368421957,-0.010691511637329548,0.01477682910668343,0.9998277226485961,0.0,0.0,0.0,0.0,0.0,0.0,0.0,0.0,0.0,4.143477417528629e-05,-4.556262865662575e-05,-0.0010635629296302795,0.01,0.0,0.0,0.0,0.01,0.0,0.0,0.0,0.01,0.18851961195468903,-0.05136292427778244,9.62153434753418,0.01,0.0,0.0,0.0,0.01,0.0,0.0,0.0,0.01
1648214346.104566,14615,1648214346,104206921,fufi_imu_link,-0.0034540710687057394,-0.010684938694815497,0.01476649729143236,0.9998279112106656,0.0,0.0,0.0,0.0,0.0,0.0,0.0,0.0,0.0,-0.000662389153148979,0.0011321944184601307,-0.001054961234331131,0.01,0.0,0.0,0.0,0.01,0.0,0.0,0.0,0.01,0.22120395302772522,-0.08316011726856232,9.634809494018555,0.01,0.0,0.0,0.0,0.01,0.0,0.0,0.0,0.01
1648214346.1125963,14616,1648214346,112370944,fufi_imu_link,-0.0034504443720530264,-0.010677035607129019,0.014764134079566477,0.9998280430599855,0.0,0.0,0.0,0.0,0.0,0.0,0.0,0.0,0.0,0.0005770950810983777,0.0014131413772702217,-0.0005787163972854614,0.01,0.0,0.0,0.0,0.01,0.0,0.0,0.0,0.01,0.1966588944196701,-0.06427260488271713,9.629791259765625,0.01,0.0,0.0,0.0,0.01,0.0,0.0,0.0,0.01
1648214346.1601293,14617,1648214346,159348399,fufi_imu_link,-0.003462542292752688,-0.010706739897872635,0.014754795299844326,0.9998278214459178,0.0,0.0,0.0,0.0,0.0,0.0,0.0,0.0,0.0,-0.00021005066810175776,-0.0013317386619746685,-0.00040377117693424225,0.01,0.0,0.0,0.0,0.01,0.0,0.0,0.0,0.01,0.19883359968662262,-0.09949582070112228,9.652023315429688,0.01,0.0,0.0,0.0,0.01,0.0,0.0,0.0,0.01
1648214346.1608188,14618,1648214346,160194879,fufi_imu_link,-0.003466129113633288,-0.010706440649788658,0.014754954876327856,0.9998278098673681,0.0,0.0,0.0,0.0,0.0,0.0,0.0,0.0,0.0,-0.00010658556129783392,0.0008593038655817509,0.00029275938868522644,0.01,0.0,0.0,0.0,0.01,0.0,0.0,0.0,0.01,0.2057029753923416,-0.08353211730718613,9.64963150024414,0.01,0.0,0.0,0.0,0.01,0.0,0.0,0.0,0.01
1648214346.2264998,14619,1648214346,225820779,fufi_imu_link,-0.003535579768569309,-0.010548163397633196,0.014832115871947658,0.999828107358159,0.0,0.0,0.0,0.0,0.0,0.0,0.0,0.0,0.0,-0.0022430375684052706,0.0043547069653868675,0.002391509711742401,0.01,0.0,0.0,0.0,0.01,0.0,0.0,0.0,0.01,0.1407219022512436,-0.04313744604587555,9.654812812805176,0.01,0.0,0.0,0.0,0.01,0.0,0.0,0.0,0.01
1648214346.235658,14620,1648214346,235042100,fufi_imu_link,-0.0035128976702337644,-0.01049663314433815,0.0148474223239647,0.9998285024407564,0.0,0.0,0.0,0.0,0.0,0.0,0.0,0.0,0.0,0.0026547617744654417,0.0004104534164071083,0.0032785777002573013,0.01,0.0,0.0,0.0,0.01,0.0,0.0,0.0,0.01,0.01228499785065651,-0.0268339104950428,9.537360191345215,0.01,0.0,0.0,0.0,0.01,0.0,0.0,0.0,0.01
1648214346.271662,14621,1648214346,270839388,fufi_imu_link,-0.003480861804408481,-0.010461460269024139,0.014904646388373266,0.9998281317137341,0.0,0.0,0.0,0.0,0.0,0.0,0.0,0.0,0.0,0.001988649135455489,-0.0019695553928613663,0.0031536798924207687,0.01,0.0,0.0,0.0,0.01,0.0,0.0,0.0,0.01,-0.0671001449227333,-0.07970256358385086,9.667067527770996,0.01,0.0,0.0,0.0,0.01,0.0,0.0,0.0,0.01
1648214346.300936,14622,1648214346,300327698,fufi_imu_link,-0.003538950427355919,-0.010362263036490273,0.014865904412856545,0.9998295375815935,0.0,0.0,0.0,0.0,0.0,0.0,0.0,0.0,0.0,-0.002905906643718481,0.00199405150488019,-0.0026190411299467087,0.01,0.0,0.0,0.0,0.01,0.0,0.0,0.0,0.01,-0.07235483825206757,-0.12459814548492432,9.567609786987305,0.01,0.0,0.0,0.0,0.01,0.0,0.0,0.0,0.01
1648214346.3189352,14623,1648214346,317937846,fufi_imu_link,-0.0035409788582816217,-0.010298684182688256,0.01482745539827502,0.9998307582482362,0.0,0.0,0.0,0.0,0.0,0.0,0.0,0.0,0.0,0.0015976610593497753,-0.0008370755240321159,-0.00443602167069912,0.01,0.0,0.0,0.0,0.01,0.0,0.0,0.0,0.01,-0.07496041804552078,-0.1301824152469635,9.588218688964844,0.01,0.0,0.0,0.0,0.01,0.0,0.0,0.0,0.01
1648214346.3563366,14624,1648214346,355703182,fufi_imu_link,-0.0035741124023813005,-0.010195958792489667,0.014653256028531462,0.9998342613816549,0.0,0.0,0.0,0.0,0.0,0.0,0.0,0.0,0.0,-0.0023357763420790434,0.0033429679460823536,-0.00919363647699356,0.01,0.0,0.0,0.0,0.01,0.0,0.0,0.0,0.01,0.03973415121436119,-0.031041795387864113,9.751686096191406,0.01,0.0,0.0,0.0,0.01,0.0,0.0,0.0,0.01
1648214346.3649542,14625,1648214346,364365241,fufi_imu_link,-0.0035379466443319196,-0.010157964978365712,0.014626969336253853,0.9998351616386956,0.0,0.0,0.0,0.0,0.0,0.0,0.0,0.0,0.0,0.005104489624500275,-0.0013868643436580896,-0.006132688373327255,0.01,0.0,0.0,0.0,0.01,0.0,0.0,0.0,0.01,0.027771566063165665,-0.016099408268928528,9.674970626831055,0.01,0.0,0.0,0.0,0.01,0.0,0.0,0.0,0.01
1648214346.3759985,14626,1648214346,375238042,fufi_imu_link,-0.0035589831457766845,-0.010090492485447597,0.014602078073598613,0.9998361340321232,0.0,0.0,0.0,0.0,0.0,0.0,0.0,0.0,0.0,-0.006483700592070818,0.0020006303675472736,-0.004519369453191757,0.01,0.0,0.0,0.0,0.01,0.0,0.0,0.0,0.01,-0.024971526116132736,-0.01399616152048111,9.575428009033203,0.01,0.0,0.0,0.0,0.01,0.0,0.0,0.0,0.01
1648214346.4042988,14627,1648214346,403459416,fufi_imu_link,-0.0034891444559523484,-0.010046483178598752,0.014615582480450817,0.999836626052209,0.0,0.0,0.0,0.0,0.0,0.0,0.0,0.0,0.0,0.003069221740588546,0.00014638155698776245,0.0009350180625915527,0.01,0.0,0.0,0.0,0.01,0.0,0.0,0.0,0.01,0.03592468798160553,0.03470199555158615,9.653221130371094,0.01,0.0,0.0,0.0,0.01,0.0,0.0,0.0,0.01
1648214346.4312382,14628,1648214346,430603015,fufi_imu_link,-0.0034700064631643765,-0.010016237231729964,0.014812018954624317,0.9998341053101516,0.0,0.0,0.0,0.0,0.0,0.0,0.0,0.0,0.0,0.0016132706077769399,0.00011664768680930138,0.01445252075791359,0.01,0.0,0.0,0.0,0.01,0.0,0.0,0.0,0.01,0.08562859892845154,-0.07083500176668167,9.603803634643555,0.01,0.0,0.0,0.0,0.01,0.0,0.0,0.0,0.01
1648214346.4390838,14629,1648214346,438472376,fufi_imu_link,-0.003449580707658898,-0.009993742969517409,0.014869545184051586,0.999833547206944,0.0,0.0,0.0,0.0,0.0,0.0,0.0,0.0,0.0,0.005135775543749332,-0.002621032064780593,0.01453426294028759,0.01,0.0,0.0,0.0,0.01,0.0,0.0,0.0,0.01,0.06744854152202606,-0.06476388871669769,9.59557056427002,0.01,0.0,0.0,0.0,0.01,0.0,0.0,0.0,0.01
1648214346.4681578,14630,1648214346,467514474,fufi_imu_link,-0.003454984647262827,-0.009942126493308735,0.015010945088135384,0.9998319302409977,0.0,0.0,0.0,0.0,0.0,0.0,0.0,0.0,0.0,0.001229482819326222,0.00046686548739671707,0.009702777490019798,0.01,0.0,0.0,0.0,0.01,0.0,0.0,0.0,0.01,0.020212145522236824,-0.15000061690807343,9.615867614746094,0.01,0.0,0.0,0.0,0.01,0.0,0.0,0.0,0.01
1648214346.5054512,14631,1648214346,504757615,fufi_imu_link,-0.0034738104740061624,-0.009937610174892997,0.015059630818531409,0.9998311777817354,0.0,0.0,0.0,0.0,0.0,0.0,0.0,0.0,0.0,-0.000945745618082583,-5.577085539698601e-05,0.0026226360350847244,0.01,0.0,0.0,0.0,0.01,0.0,0.0,0.0,0.01,0.16754896938800812,-0.07183876633644104,9.564597129821777,0.01,0.0,0.0,0.0,0.01,0.0,0.0,0.0,0.01
1648214346.5141335,14632,1648214346,513310644,fufi_imu_link,-0.003467374018907184,-0.009939740785291222,0.015072151823990557,0.9998309902728204,0.0,0.0,0.0,0.0,0.0,0.0,0.0,0.0,0.0,0.0004207338497508317,-0.0025826713535934687,0.0029183384031057358,0.01,0.0,0.0,0.0,0.01,0.0,0.0,0.0,0.01,0.1565977782011032,-0.05147441476583481,9.617046356201172,0.01,0.0,0.0,0.0,0.01,0.0,0.0,0.0,0.01
1648214346.5523665,14633,1648214346,551301036,fufi_imu_link,-0.0034859850050530127,-0.009931865916035277,0.01513024046906865,0.9998301264571491,0.0,0.0,0.0,0.0,0.0,0.0,0.0,0.0,0.0,-0.0008580646244809031,0.00015193456783890724,0.0030658021569252014,0.01,0.0,0.0,0.0,0.01,0.0,0.0,0.0,0.01,0.17178282141685486,-0.07663173973560333,9.680471420288086,0.01,0.0,0.0,0.0,0.01,0.0,0.0,0.0,0.01
1648214346.5804107,14634,1648214346,579478505,fufi_imu_link,-0.0035332620547535313,-0.010015281271606872,0.015071530639538259,0.9998300151348152,0.0,0.0,0.0,0.0,0.0,0.0,0.0,0.0,0.0,-0.003095685737207532,-0.003989619202911854,-0.0041477251797914505,0.01,0.0,0.0,0.0,0.01,0.0,0.0,0.0,0.01,0.2952384352684021,-0.09286610782146454,9.715083122253418,0.01,0.0,0.0,0.0,0.01,0.0,0.0,0.0,0.01
1648214346.5931897,14635,1648214346,592150679,fufi_imu_link,-0.0035132327886952894,-0.010064180665672287,0.015038747453152604,0.9998300883339836,0.0,0.0,0.0,0.0,0.0,0.0,0.0,0.0,0.0,0.004623538348823786,-0.0028241320978850126,-0.005228675901889801,0.01,0.0,0.0,0.0,0.01,0.0,0.0,0.0,0.01,0.3124105930328369,-0.11021047830581665,9.629085540771484,0.01,0.0,0.0,0.0,0.01,0.0,0.0,0.0,0.01
1648214346.635263,14636,1648214346,634592177,fufi_imu_link,-0.0035117467726262014,-0.010011878881102311,0.014932744883765652,0.9998322074458852,0.0,0.0,0.0,0.0,0.0,0.0,0.0,0.0,0.0,-0.00031959154875949025,0.0037223068065941334,-0.004971317946910858,0.01,0.0,0.0,0.0,0.01,0.0,0.0,0.0,0.01,0.29148203134536743,-0.03966750577092171,9.586809158325195,0.01,0.0,0.0,0.0,0.01,0.0,0.0,0.0,0.01
1648214346.6443748,14637,1648214346,643964746,fufi_imu_link,-0.0035007751498967936,-0.009995007259824941,0.014908907330463742,0.9998327704598593,0.0,0.0,0.0,0.0,0.0,0.0,0.0,0.0,0.0,0.0018548456719145179,0.0044158827513456345,-0.005082579329609871,0.01,0.0,0.0,0.0,0.01,0.0,0.0,0.0,0.01,0.20531240105628967,-0.06116476655006409,9.57632827758789,0.01,0.0,0.0,0.0,0.01,0.0,0.0,0.0,0.01
1648214346.6628838,14638,1648214346,662504903,fufi_imu_link,-0.003496822071630572,-0.009949768786242092,0.014892331006283163,0.9998334825428178,0.0,0.0,0.0,0.0,0.0,0.0,0.0,0.0,0.0,-0.0011937092058360577,0.004042495042085648,-0.0017490480095148087,0.01,0.0,0.0,0.0,0.01,0.0,0.0,0.0,0.01,0.1623488813638687,-0.010763558559119701,9.718202590942383,0.01,0.0,0.0,0.0,0.01,0.0,0.0,0.0,0.01
1648214346.7095852,14639,1648214346,709310533,fufi_imu_link,-0.0034845781690046604,-0.009881052239137687,0.014982870443061192,0.9998328540885811,0.0,0.0,0.0,0.0,0.0,0.0,0.0,0.0,0.0,0.0003292858018539846,0.000721239484846592,0.0038630422204732895,0.01,0.0,0.0,0.0,0.01,0.0,0.0,0.0,0.01,-0.007419781759381294,-0.0452001616358757,9.630921363830566,0.01,0.0,0.0,0.0,0.01,0.0,0.0,0.0,0.01
1648214346.7098544,14640,1648214346,709647867,fufi_imu_link,-0.003490142863528096,-0.009812599369258403,0.014983780635642372,0.9998334951952119,0.0,0.0,0.0,0.0,0.0,0.0,0.0,0.0,0.0,-0.0010550678707659245,-0.0033128936775028706,0.003595704212784767,0.01,0.0,0.0,0.0,0.01,0.0,0.0,0.0,0.01,-0.07730486989021301,-0.08724050223827362,9.686965942382812,0.01,0.0,0.0,0.0,0.01,0.0,0.0,0.0,0.01
1648214346.7762172,14641,1648214346,775577433,fufi_imu_link,-0.0034622024145020604,-0.009563464965752687,0.015007800736369085,0.9998356460985712,0.0,0.0,0.0,0.0,0.0,0.0,0.0,0.0,0.0,0.0014063932467252016,0.0036346283741295338,0.000708872452378273,0.01,0.0,0.0,0.0,0.01,0.0,0.0,0.0,0.01,-0.310168981552124,-0.12463970482349396,9.614063262939453,0.01,0.0,0.0,0.0,0.01,0.0,0.0,0.0,0.01
1648214346.7855728,14642,1648214346,785019091,fufi_imu_link,-0.0034489429974450475,-0.009467792533754871,0.014996920141767801,0.9998367657187845,0.0,0.0,0.0,0.0,0.0,0.0,0.0,0.0,0.0,-0.0009187365649268031,-0.002591436728835106,-0.0023530330508947372,0.01,0.0,0.0,0.0,0.01,0.0,0.0,0.0,0.01,-0.22933444380760193,0.003369029611349106,9.532320022583008,0.01,0.0,0.0,0.0,0.01,0.0,0.0,0.0,0.01
1648214346.8511992,14643,1648214346,850400118,fufi_imu_link,-0.00353914103745705,-0.009156246280057722,0.014858709021406508,0.9998414156259948,0.0,0.0,0.0,0.0,0.0,0.0,0.0,0.0,0.0,-0.0028702772688120604,0.005200967658311129,-0.004198199138045311,0.01,0.0,0.0,0.0,0.01,0.0,0.0,0.0,0.01,-0.3729805648326874,-0.043751299381256104,9.5941743850708,0.01,0.0,0.0,0.0,0.01,0.0,0.0,0.0,0.01
1648214346.8687596,14644,1648214346,868106726,fufi_imu_link,-0.003535720189518445,-0.008959494447377727,0.014839994356883246,0.9998434881067519,0.0,0.0,0.0,0.0,0.0,0.0,0.0,0.0,0.0,0.0008774906164035201,0.004133032634854317,-0.0021779853850603104,0.01,0.0,0.0,0.0,0.01,0.0,0.0,0.0,0.01,-0.4439082741737366,-0.07696299999952316,9.654481887817383,0.01,0.0,0.0,0.0,0.01,0.0,0.0,0.0,0.01
1648214346.9065092,14645,1648214346,905661612,fufi_imu_link,-0.0035985274266644093,-0.00886505580997236,0.014831342870295739,0.9998442341957618,0.0,0.0,0.0,0.0,0.0,0.0,0.0,0.0,0.0,-0.003086712211370468,-0.0017190822400152683,-0.0004671253263950348,0.01,0.0,0.0,0.0,0.01,0.0,0.0,0.0,0.01,-0.3217223882675171,-0.08580832183361053,9.686657905578613,0.01,0.0,0.0,0.0,0.01,0.0,0.0,0.0,0.01
1648214346.9149783,14646,1648214346,914364778,fufi_imu_link,-0.0036177038344629635,-0.008778115929422037,0.01483383241667564,0.9998448951290044,0.0,0.0,0.0,0.0,0.0,0.0,0.0,0.0,0.0,-0.002094841795042157,-0.006842448376119137,0.0004444494843482971,0.01,0.0,0.0,0.0,0.01,0.0,0.0,0.0,0.01,-0.28196385502815247,-0.10626129806041718,9.680092811584473,0.01,0.0,0.0,0.0,0.01,0.0,0.0,0.0,0.01
1648214346.9257622,14647,1648214346,925131411,fufi_imu_link,-0.0036259513853390333,-0.008710203776802754,0.014841323531151621,0.9998453480126621,0.0,0.0,0.0,0.0,0.0,0.0,0.0,0.0,0.0,-0.0035712826065719128,-0.001258147181943059,0.001383863389492035,0.01,0.0,0.0,0.0,0.01,0.0,0.0,0.0,0.01,-0.1200844794511795,-0.026158705353736877,9.644474029541016,0.01,0.0,0.0,0.0,0.01,0.0,0.0,0.0,0.01
1648214346.9435003,14648,1648214346,942809729,fufi_imu_link,-0.003652452508978786,-0.00858278706321522,0.014890867539339402,0.9998456167933244,0.0,0.0,0.0,0.0,0.0,0.0,0.0,0.0,0.0,-0.003317817347124219,0.0043618762865662575,0.005616217851638794,0.01,0.0,0.0,0.0,0.01,0.0,0.0,0.0,0.01,-0.17424650490283966,-0.052170660346746445,9.472566604614258,0.01,0.0,0.0,0.0,0.01,0.0,0.0,0.0,0.01
1648214346.9814103,14649,1648214346,980466473,fufi_imu_link,-0.0034920876686744522,-0.008605240545699238,0.014850921956065702,0.9998465908707795,0.0,0.0,0.0,0.0,0.0,0.0,0.0,0.0,0.0,0.010270747356116772,-0.0034396974369883537,-0.0022458042949438095,0.01,0.0,0.0,0.0,0.01,0.0,0.0,0.0,0.01,0.011217374354600906,-0.20149488747119904,9.75118637084961,0.01,0.0,0.0,0.0,0.01,0.0,0.0,0.0,0.01
1648214346.9893794,14650,1648214346,988440568,fufi_imu_link,-0.0035104708381284715,-0.008624943430430278,0.014837041764473946,0.9998465627970102,0.0,0.0,0.0,0.0,0.0,0.0,0.0,0.0,0.0,-0.002319557825103402,-0.004710443317890167,-0.0034981723874807358,0.01,0.0,0.0,0.0,0.01,0.0,0.0,0.0,0.01,0.1695762574672699,-0.1080537959933281,9.754653930664062,0.01,0.0,0.0,0.0,0.01,0.0,0.0,0.0,0.01
1648214347.0185235,14651,1648214347,17656222,fufi_imu_link,-0.003560709188903952,-0.008729283714944662,0.014789862439300375,0.9998461786319547,0.0,0.0,0.0,0.0,0.0,0.0,0.0,0.0,0.0,-0.00261553842574358,-0.007154326885938644,-0.0032413117587566376,0.01,0.0,0.0,0.0,0.01,0.0,0.0,0.0,0.01,0.16440048813819885,-0.12579602003097534,9.716981887817383,0.01,0.0,0.0,0.0,0.01,0.0,0.0,0.0,0.01
1648214347.0554888,14652,1648214347,54755194,fufi_imu_link,-0.003638725547264378,-0.008827971948257336,0.014819476647983642,0.9998445927740732,0.0,0.0,0.0,0.0,0.0,0.0,0.0,0.0,0.0,-0.004214367363601923,-0.003609109204262495,0.0016266535967588425,0.01,0.0,0.0,0.0,0.01,0.0,0.0,0.0,0.01,0.28747785091400146,-0.07679148018360138,9.656143188476562,0.01,0.0,0.0,0.0,0.01,0.0,0.0,0.0,0.01
1648214347.0639236,14653,1648214347,63256443,fufi_imu_link,-0.0036585488254417863,-0.008924646976887758,0.014840642806333253,0.9998433482390753,0.0,0.0,0.0,0.0,0.0,0.0,0.0,0.0,0.0,-0.004494147840887308,-0.009617265313863754,0.00503220409154892,0.01,0.0,0.0,0.0,0.01,0.0,0.0,0.0,0.01,0.38300639390945435,-0.08035030961036682,9.603706359863281,0.01,0.0,0.0,0.0,0.01,0.0,0.0,0.0,0.01
1648214347.102121,14654,1648214347,101391094,fufi_imu_link,-0.0036215032197225642,-0.009024576244657554,0.0145968035462702,0.9998461757011754,0.0,0.0,0.0,0.0,0.0,0.0,0.0,0.0,0.0,0.0024497832637280226,-0.0010756300762295723,-0.012806233018636703,0.01,0.0,0.0,0.0,0.01,0.0,0.0,0.0,0.01,0.476579487323761,-0.12344755977392197,9.63859748840332,0.01,0.0,0.0,0.0,0.01,0.0,0.0,0.0,0.01
1648214347.1302712,14655,1648214347,129557337,fufi_imu_link,-0.0036914903241712614,-0.009117098860105418,0.014454573282139883,0.9998471466773273,0.0,0.0,0.0,0.0,0.0,0.0,0.0,0.0,0.0,-0.0056993840262293816,0.0016689053736627102,-0.010006347671151161,0.01,0.0,0.0,0.0,0.01,0.0,0.0,0.0,0.01,0.6206998229026794,-0.04463837295770645,9.732604026794434,0.01,0.0,0.0,0.0,0.01,0.0,0.0,0.0,0.01
1648214347.1382546,14656,1648214347,137844915,fufi_imu_link,-0.0036744839875160022,-0.00920539459596234,0.014423033364352139,0.9998468557665864,0.0,0.0,0.0,0.0,0.0,0.0,0.0,0.0,0.0,0.002736336085945368,0.0057379864156246185,-0.007500641047954559,0.01,0.0,0.0,0.0,0.01,0.0,0.0,0.0,0.01,0.6035909652709961,-0.05723806843161583,9.57401180267334,0.01,0.0,0.0,0.0,0.01,0.0,0.0,0.0,0.01
1648214347.1856198,14657,1648214347,184682319,fufi_imu_link,-0.0037550757394556504,-0.009245818260037418,0.014420791338835942,0.9998462156892205,0.0,0.0,0.0,0.0,0.0,0.0,0.0,0.0,0.0,-0.004235733300447464,0.0028340788558125496,-2.117268741130829e-05,0.01,0.0,0.0,0.0,0.01,0.0,0.0,0.0,0.01,0.5888053178787231,-0.005803561303764582,9.732670783996582,0.01,0.0,0.0,0.0,0.01,0.0,0.0,0.0,0.01
1648214347.205136,14658,1648214347,204341800,fufi_imu_link,-0.0037643369318213324,-0.009403375795269767,0.014444046915099104,0.9998443757904683,0.0,0.0,0.0,0.0,0.0,0.0,0.0,0.0,0.0,-0.0028870971873402596,-0.0032263416796922684,0.002448542043566704,0.01,0.0,0.0,0.0,0.01,0.0,0.0,0.0,0.01,0.660917341709137,-0.009581433609127998,9.595701217651367,0.01,0.0,0.0,0.0,0.01,0.0,0.0,0.0,0.01
1648214347.213353,14659,1648214347,212911329,fufi_imu_link,-0.0037587834281332115,-0.009470195836978527,0.0144747747249158,0.9998433216432526,0.0,0.0,0.0,0.0,0.0,0.0,0.0,0.0,0.0,-0.003569765714928508,0.005771279335021973,0.007358221337199211,0.01,0.0,0.0,0.0,0.01,0.0,0.0,0.0,0.01,0.5294132232666016,0.0023521780967712402,9.555490493774414,0.01,0.0,0.0,0.0,0.01,0.0,0.0,0.0,0.01
1648214347.2598696,14660,1648214347,259332111,fufi_imu_link,-0.0037841010618925894,-0.009232706541204802,0.014746309813011463,0.9998414794636078,0.0,0.0,0.0,0.0,0.0,0.0,0.0,0.0,0.0,-0.002122224075719714,0.011953353881835938,0.011784648522734642,0.01,0.0,0.0,0.0,0.01,0.0,0.0,0.0,0.01,0.3294997811317444,0.03892934322357178,9.535993576049805,0.01,0.0,0.0,0.0,0.01,0.0,0.0,0.0,0.01
1648214347.2604,14661,1648214347,259968887,fufi_imu_link,-0.003749003235216999,-0.009243725600103487,0.014750135080507966,0.9998414534449345,0.0,0.0,0.0,0.0,0.0,0.0,0.0,0.0,0.0,-0.0015527209034189582,0.008364568464457989,0.013258956372737885,0.01,0.0,0.0,0.0,0.01,0.0,0.0,0.0,0.01,0.23187769949436188,0.06124206259846687,9.646685600280762,0.01,0.0,0.0,0.0,0.01,0.0,0.0,0.0,0.01
1648214347.2875752,14662,1648214347,287258520,fufi_imu_link,-0.003939526761658488,-0.009136698758779663,0.01491885525670165,0.99983920138316,0.0,0.0,0.0,0.0,0.0,0.0,0.0,0.0,0.0,-0.0139262480661273,0.010592604987323284,0.0125482939183712,0.01,0.0,0.0,0.0,0.01,0.0,0.0,0.0,0.01,0.3129280209541321,-0.06886816769838333,9.705305099487305,0.01,0.0,0.0,0.0,0.01,0.0,0.0,0.0,0.01
1648214347.3255372,14663,1648214347,325315777,fufi_imu_link,-0.003799345971418837,-0.008905534930227506,0.015052035956009265,0.9998398334890318,0.0,0.0,0.0,0.0,0.0,0.0,0.0,0.0,0.0,0.010301032103598118,0.009130334481596947,0.00690661184489727,0.01,0.0,0.0,0.0,0.01,0.0,0.0,0.0,0.01,-0.039625298231840134,-0.27180033922195435,9.622260093688965,0.01,0.0,0.0,0.0,0.01,0.0,0.0,0.0,0.01
1648214347.3347027,14664,1648214347,334414652,fufi_imu_link,-0.0038526882076159244,-0.008710696190569318,0.015043522845690438,0.9998414739276631,0.0,0.0,0.0,0.0,0.0,0.0,0.0,0.0,0.0,-0.012434589676558971,0.0280098058283329,-0.0017045121639966965,0.01,0.0,0.0,0.0,0.01,0.0,0.0,0.0,0.01,-0.09428481012582779,-0.053009890019893646,9.568902969360352,0.01,0.0,0.0,0.0,0.01,0.0,0.0,0.0,0.01
1648214347.4012432,14665,1648214347,400424678,fufi_imu_link,-0.003551651463966887,-0.008494785552377303,0.014797051984948958,0.9998481242883104,0.0,0.0,0.0,0.0,0.0,0.0,0.0,0.0,0.0,0.010003660805523396,0.0008897781372070312,-0.007580781355500221,0.01,0.0,0.0,0.0,0.01,0.0,0.0,0.0,0.01,-0.5456188917160034,-0.18066191673278809,9.737707138061523,0.01,0.0,0.0,0.0,0.01,0.0,0.0,0.0,0.01
1648214347.4186285,14666,1648214347,418018063,fufi_imu_link,-0.003488387793893099,-0.00812901179112596,0.01466006637891007,0.9998534056408797,0.0,0.0,0.0,0.0,0.0,0.0,0.0,0.0,0.0,0.010979785583913326,0.01746927946805954,-0.015722185373306274,0.01,0.0,0.0,0.0,0.01,0.0,0.0,0.0,0.01,-0.6459035873413086,-0.17812903225421906,9.467467308044434,0.01,0.0,0.0,0.0,0.01,0.0,0.0,0.0,0.01
1648214347.456312,14667,1648214347,455707237,fufi_imu_link,-0.0031911409492464057,-0.00768032036736241,0.014482381584818776,0.999860535235854,0.0,0.0,0.0,0.0,0.0,0.0,0.0,0.0,0.0,0.015681128948926926,0.009480457752943039,-0.009570213034749031,0.01,0.0,0.0,0.0,0.01,0.0,0.0,0.0,0.01,-0.8884347677230835,-0.03794095665216446,9.760862350463867,0.01,0.0,0.0,0.0,0.01,0.0,0.0,0.0,0.01
1648214347.4650872,14668,1648214347,464442402,fufi_imu_link,-0.0031493188643554413,-0.007381254559816495,0.01444533797909303,0.9998634562191399,0.0,0.0,0.0,0.0,0.0,0.0,0.0,0.0,0.0,0.012782531790435314,0.009186037816107273,-0.008767219260334969,0.01,0.0,0.0,0.0,0.01,0.0,0.0,0.0,0.01,-0.8583545684814453,-0.10177018493413925,9.702129364013672,0.01,0.0,0.0,0.0,0.01,0.0,0.0,0.0,0.01
1648214347.476172,14669,1648214347,475256148,fufi_imu_link,-0.003067733806568069,-0.007070970443966046,0.014399938199276013,0.9998666071862434,0.0,0.0,0.0,0.0,0.0,0.0,0.0,0.0,0.0,0.018495136871933937,0.0013769874349236488,-0.008731139823794365,0.01,0.0,0.0,0.0,0.01,0.0,0.0,0.0,0.01,-1.0161935091018677,-0.11490592360496521,9.538068771362305,0.01,0.0,0.0,0.0,0.01,0.0,0.0,0.0,0.01
1648214347.4936585,14670,1648214347,493014589,fufi_imu_link,-0.0030023252445809455,-0.0067692809134755495,0.014359003513311625,0.9998694824311546,0.0,0.0,0.0,0.0,0.0,0.0,0.0,0.0,0.0,0.009574484080076218,0.0026209219358861446,-0.004782136529684067,0.01,0.0,0.0,0.0,0.01,0.0,0.0,0.0,0.01,-0.9542924165725708,-0.12162661552429199,9.79780387878418,0.01,0.0,0.0,0.0,0.01,0.0,0.0,0.0,0.01
1648214347.5028608,14671,1648214347,502272348,fufi_imu_link,-0.0030001819189399478,-0.006498053280127263,0.014370892106130897,0.9998711175307025,0.0,0.0,0.0,0.0,0.0,0.0,0.0,0.0,0.0,-0.00022216537036001682,0.0007699555717408657,0.0023981090635061264,0.01,0.0,0.0,0.0,0.01,0.0,0.0,0.0,0.01,-0.9132699966430664,-0.03239082545042038,9.724671363830566,0.01,0.0,0.0,0.0,0.01,0.0,0.0,0.0,0.01
1648214347.5318677,14672,1648214347,531060567,fufi_imu_link,-0.002915333747546552,-0.006417988065403248,0.014405925897518537,0.9998713815073257,0.0,0.0,0.0,0.0,0.0,0.0,0.0,0.0,0.0,0.00648517394438386,-0.013855837285518646,0.00228743813931942,0.01,0.0,0.0,0.0,0.01,0.0,0.0,0.0,0.01,-0.9497193694114685,-0.08556370437145233,9.657432556152344,0.01,0.0,0.0,0.0,0.01,0.0,0.0,0.0,0.01
1648214347.5390332,14673,1648214347,538364821,fufi_imu_link,-0.0029151714559474714,-0.00618139289526691,0.014414878133406315,0.9998727436257355,0.0,0.0,0.0,0.0,0.0,0.0,0.0,0.0,0.0,0.0017728079110383987,-0.012423175387084484,0.0021603163331747055,0.01,0.0,0.0,0.0,0.01,0.0,0.0,0.0,0.01,-0.9542375802993774,-0.06793935596942902,9.511628150939941,0.01,0.0,0.0,0.0,0.01,0.0,0.0,0.0,0.01
1648214347.5684462,14674,1648214347,567720196,fufi_imu_link,-0.0030541384206723894,-0.005970760911569279,0.014529176546108864,0.9998719544429358,0.0,0.0,0.0,0.0,0.0,0.0,0.0,0.0,0.0,-0.008829048834741116,0.0004840865731239319,0.007796851918101311,0.01,0.0,0.0,0.0,0.01,0.0,0.0,0.0,0.01,-0.691922664642334,-0.08420749008655548,9.892374038696289,0.01,0.0,0.0,0.0,0.01,0.0,0.0,0.0,0.01
1648214347.5955014,14675,1648214347,594831117,fufi_imu_link,-0.003173628122284637,-0.006063255984803486,0.014774926645718103,0.9998674244888759,0.0,0.0,0.0,0.0,0.0,0.0,0.0,0.0,0.0,-0.010574312880635262,-0.016916178166866302,0.01811959035694599,0.01,0.0,0.0,0.0,0.01,0.0,0.0,0.0,0.01,-0.40994754433631897,0.029047930613160133,9.569950103759766,0.01,0.0,0.0,0.0,0.01,0.0,0.0,0.0,0.01
1648214347.6144128,14676,1648214347,613266205,fufi_imu_link,-0.0034867231133550503,-0.006076147831435548,0.015003675568697342,0.9998628970558368,0.0,0.0,0.0,0.0,0.0,0.0,0.0,0.0,0.0,-0.03701138123869896,-0.014305055141448975,0.024969253689050674,0.01,0.0,0.0,0.0,0.01,0.0,0.0,0.0,0.01,-0.337726891040802,0.041371408849954605,9.161581039428711,0.01,0.0,0.0,0.0,0.01,0.0,0.0,0.0,0.01
1648214347.6803687,14677,1648214347,679524134,fufi_imu_link,-0.004364161299751108,-0.006436144505150411,0.014828408627630602,0.999859814392813,0.0,0.0,0.0,0.0,0.0,0.0,0.0,0.0,0.0,-0.026791565120220184,-0.009628212079405785,-0.005157265812158585,0.01,0.0,0.0,0.0,0.01,0.0,0.0,0.0,0.01,0.22821108996868134,-0.07173244655132294,9.678449630737305,0.01,0.0,0.0,0.0,0.01,0.0,0.0,0.0,0.01
1648214347.6887412,14678,1648214347,688088268,fufi_imu_link,-0.0043963543692505085,-0.006504478721457326,0.014799205275481035,0.9998596638268975,0.0,0.0,0.0,0.0,0.0,0.0,0.0,0.0,0.0,-0.009923836216330528,-0.012965526431798935,-0.006786953657865524,0.01,0.0,0.0,0.0,0.01,0.0,0.0,0.0,0.01,0.17398595809936523,-0.052584875375032425,9.809704780578613,0.01,0.0,0.0,0.0,0.01,0.0,0.0,0.0,0.01
1648214347.735447,14679,1648214347,734724312,fufi_imu_link,-0.004722121155450526,-0.006688507960273106,0.014203341211686059,0.9998656062348994,0.0,0.0,0.0,0.0,0.0,0.0,0.0,0.0,0.0,-0.013468371704220772,-0.005201929248869419,-0.02548598311841488,0.01,0.0,0.0,0.0,0.01,0.0,0.0,0.0,0.01,0.33629077672958374,-0.16111916303634644,9.541494369506836,0.01,0.0,0.0,0.0,0.01,0.0,0.0,0.0,0.01
1648214347.754933,14680,1648214347,754356849,fufi_imu_link,-0.004564663049620809,-0.0067650215837511685,0.013913657064937551,0.9998698957770926,0.0,0.0,0.0,0.0,0.0,0.0,0.0,0.0,0.0,0.01790471561253071,-0.00198696949519217,-0.029630063101649284,0.01,0.0,0.0,0.0,0.01,0.0,0.0,0.0,0.01,0.3578775227069855,-0.17484228312969208,9.8195161819458,0.01,0.0,0.0,0.0,0.01,0.0,0.0,0.0,0.01
1648214347.7641444,14681,1648214347,762897682,fufi_imu_link,-0.004485095818645816,-0.006913554497356077,0.013793662981631347,0.9998709024375391,0.0,0.0,0.0,0.0,0.0,0.0,0.0,0.0,0.0,0.015179756097495556,5.4090749472379684e-05,-0.028022704645991325,0.01,0.0,0.0,0.0,0.01,0.0,0.0,0.0,0.01,0.7304575443267822,-0.044094666838645935,9.970124244689941,0.01,0.0,0.0,0.0,0.01,0.0,0.0,0.0,0.01
1648214347.810525,14682,1648214347,809479874,fufi_imu_link,-0.004406120328572651,-0.0073020266949281555,0.01367719248821951,0.9998700920196768,0.0,0.0,0.0,0.0,0.0,0.0,0.0,0.0,0.0,-0.00026543712010607123,-0.008292230777442455,-0.00497356615960598,0.01,0.0,0.0,0.0,0.01,0.0,0.0,0.0,0.01,0.861558198928833,0.209519624710083,9.291191101074219,0.01,0.0,0.0,0.0,0.01,0.0,0.0,0.0,0.01
1648214347.8109508,14683,1648214347,810349567,fufi_imu_link,-0.004392696509327461,-0.00747062781696508,0.01367472120383609,0.9998689393802543,0.0,0.0,0.0,0.0,0.0,0.0,0.0,0.0,0.0,-0.007771395146846771,0.0016433214768767357,-0.0035842321813106537,0.01,0.0,0.0,0.0,0.01,0.0,0.0,0.0,0.01,0.7621272206306458,-0.029688073322176933,9.240915298461914,0.01,0.0,0.0,0.0,0.01,0.0,0.0,0.0,0.01
1648214347.8380098,14684,1648214347,837538516,fufi_imu_link,-0.004307466399986379,-0.007573081720225094,0.013692541177127655,0.9998682955682635,0.0,0.0,0.0,0.0,0.0,0.0,0.0,0.0,0.0,0.0066910176537930965,0.0044594937935471535,0.0013313069939613342,0.01,0.0,0.0,0.0,0.01,0.0,0.0,0.0,0.01,0.7930021286010742,-0.11433090269565582,9.83670425415039,0.01,0.0,0.0,0.0,0.01,0.0,0.0,0.0,0.01
1648214347.8756933,14685,1648214347,875325141,fufi_imu_link,-0.004449892812525983,-0.007783083357632004,0.013526983108286234,0.9998683127269278,0.0,0.0,0.0,0.0,0.0,0.0,0.0,0.0,0.0,-0.008215668611228466,-0.0027473419904708862,-0.008671676740050316,0.01,0.0,0.0,0.0,0.01,0.0,0.0,0.0,0.01,0.7315912842750549,-0.053217675536870956,9.444412231445312,0.01,0.0,0.0,0.0,0.01,0.0,0.0,0.0,0.01
1648214347.8848388,14686,1648214347,884507507,fufi_imu_link,-0.004414640177539852,-0.007985960575171031,0.013474437617939457,0.9998675786906359,0.0,0.0,0.0,0.0,0.0,0.0,0.0,0.0,0.0,0.009225456044077873,-0.0028616965282708406,-0.011356989853084087,0.01,0.0,0.0,0.0,0.01,0.0,0.0,0.0,0.01,0.8799788951873779,-0.12605249881744385,9.592068672180176,0.01,0.0,0.0,0.0,0.01,0.0,0.0,0.0,0.01
1648214347.9505074,14687,1648214347,950149487,fufi_imu_link,-0.004940843078716447,-0.008232210571555964,0.013319753668229593,0.9998651923839507,0.0,0.0,0.0,0.0,0.0,0.0,0.0,0.0,0.0,-0.01635230891406536,-0.0050580622628331184,-0.004592366516590118,0.01,0.0,0.0,0.0,0.01,0.0,0.0,0.0,0.01,0.43655240535736084,-0.0744217187166214,9.65784740447998,0.01,0.0,0.0,0.0,0.01,0.0,0.0,0.0,0.01
1648214347.958422,14688,1648214347,957975642,fufi_imu_link,-0.0048371491610377975,-0.008327442335721821,0.013307646898344707,0.999865072010303,0.0,0.0,0.0,0.0,0.0,0.0,0.0,0.0,0.0,0.02946288511157036,-0.0037952482234686613,-0.0032772477716207504,0.01,0.0,0.0,0.0,0.01,0.0,0.0,0.0,0.01,0.46850675344467163,-0.14383196830749512,9.544960021972656,0.01,0.0,0.0,0.0,0.01,0.0,0.0,0.0,0.01
1648214348.0067382,14689,1648214348,5859442,fufi_imu_link,-0.004966734891646147,-0.008203851803849426,0.013289673682964288,0.9998656974481609,0.0,0.0,0.0,0.0,0.0,0.0,0.0,0.0,0.0,-0.008703997358679771,0.008536474779248238,-0.0005928091704845428,0.01,0.0,0.0,0.0,0.01,0.0,0.0,0.0,0.01,0.47270408272743225,0.2163619101047516,9.898597717285156,0.01,0.0,0.0,0.0,0.01,0.0,0.0,0.0,0.01
1648214348.014972,14690,1648214348,14428651,fufi_imu_link,-0.004936331979531855,-0.00825946379819275,0.01330238677293222,0.9998652211125746,0.0,0.0,0.0,0.0,0.0,0.0,0.0,0.0,0.0,0.0041530076414346695,-0.003056565299630165,0.002992715686559677,0.01,0.0,0.0,0.0,0.01,0.0,0.0,0.0,0.01,0.3327099084854126,-0.05289126932621002,9.92967414855957,0.01,0.0,0.0,0.0,0.01,0.0,0.0,0.0,0.01
1648214348.025928,14691,1648214348,25279974,fufi_imu_link,-0.004883899078269419,-0.008362453466450636,0.013348662009314626,0.9998640058149787,0.0,0.0,0.0,0.0,0.0,0.0,0.0,0.0,0.0,-0.002605439629405737,-0.009648514911532402,0.008652005344629288,0.01,0.0,0.0,0.0,0.01,0.0,0.0,0.0,0.01,0.3546259105205536,0.15399515628814697,9.549345016479492,0.01,0.0,0.0,0.0,0.01,0.0,0.0,0.0,0.01
1648214348.0434942,14692,1648214348,42826178,fufi_imu_link,-0.004917864812918712,-0.008410510511602158,0.013481030684996537,0.9998616602962064,0.0,0.0,0.0,0.0,0.0,0.0,0.0,0.0,0.0,-0.007888355292379856,-0.008025817573070526,0.015137556940317154,0.01,0.0,0.0,0.0,0.01,0.0,0.0,0.0,0.01,0.07360715419054031,0.038780827075242996,9.34755802154541,0.01,0.0,0.0,0.0,0.01,0.0,0.0,0.0,0.01
1648214348.0814028,14693,1648214348,80610204,fufi_imu_link,-0.004759795054904333,-0.008018797043167486,0.013823597820825467,0.9998609660289294,0.0,0.0,0.0,0.0,0.0,0.0,0.0,0.0,0.0,0.00976556446403265,0.015997720882296562,0.018101848661899567,0.01,0.0,0.0,0.0,0.01,0.0,0.0,0.0,0.01,-0.17600630223751068,-0.1646818220615387,9.681524276733398,0.01,0.0,0.0,0.0,0.01,0.0,0.0,0.0,0.01
1648214348.0892296,14694,1648214348,88465366,fufi_imu_link,-0.004774699680694414,-0.007860344327920932,0.013889775158807896,0.9998612360603063,0.0,0.0,0.0,0.0,0.0,0.0,0.0,0.0,0.0,-0.01227521151304245,0.015194983221590519,0.0169680193066597,0.01,0.0,0.0,0.0,0.01,0.0,0.0,0.0,0.01,-0.22752779722213745,0.043992236256599426,9.608244895935059,0.01,0.0,0.0,0.0,0.01,0.0,0.0,0.0,0.01
1648214348.118385,14695,1648214348,117698297,fufi_imu_link,-0.00471924692631986,-0.00800237323682295,0.014078999484898522,0.9998577261313388,0.0,0.0,0.0,0.0,0.0,0.0,0.0,0.0,0.0,0.0043908581137657166,-0.01609214022755623,0.012800529599189758,0.01,0.0,0.0,0.0,0.01,0.0,0.0,0.0,0.01,-0.20339515805244446,-0.1319357305765152,9.894499778747559,0.01,0.0,0.0,0.0,0.01,0.0,0.0,0.0,0.01
1648214348.1456778,14696,1648214348,144940141,fufi_imu_link,-0.004574438593235371,-0.008003417294562411,0.014031043258828724,0.9998590648927651,0.0,0.0,0.0,0.0,0.0,0.0,0.0,0.0,0.0,0.009516247548162937,-0.0069333831779658794,-0.0036538857966661453,0.01,0.0,0.0,0.0,0.01,0.0,0.0,0.0,0.01,-0.19627341628074646,-0.03331334888935089,9.535459518432617,0.01,0.0,0.0,0.0,0.01,0.0,0.0,0.0,0.01
1648214348.1642668,14697,1648214348,163244184,fufi_imu_link,-0.00456154430513755,-0.007880583439761845,0.013979184245063312,0.9998608258783038,0.0,0.0,0.0,0.0,0.0,0.0,0.0,0.0,0.0,0.0010880689369514585,0.004853592254221439,-0.005691101774573326,0.01,0.0,0.0,0.0,0.01,0.0,0.0,0.0,0.01,-0.15133413672447205,-0.0742332711815834,9.699721336364746,0.01,0.0,0.0,0.0,0.01,0.0,0.0,0.0,0.01
1648214348.2304478,14698,1648214348,229784834,fufi_imu_link,-0.004317098988267858,-0.00803205512739641,0.013896021963477188,0.9998618651195507,0.0,0.0,0.0,0.0,0.0,0.0,0.0,0.0,0.0,0.00730858463793993,-0.0056117805652320385,-0.0025878846645355225,0.01,0.0,0.0,0.0,0.01,0.0,0.0,0.0,0.01,0.02955460175871849,-0.08973772078752518,9.48383617401123,0.01,0.0,0.0,0.0,0.01,0.0,0.0,0.0,0.01
1648214348.238897,14699,1648214348,238119155,fufi_imu_link,-0.004265209071319982,-0.007983073461723287,0.013873206309584168,0.9998627969258455,0.0,0.0,0.0,0.0,0.0,0.0,0.0,0.0,0.0,0.0089165810495615,0.0009252387098968029,-0.005562677979469299,0.01,0.0,0.0,0.0,0.01,0.0,0.0,0.0,0.01,-0.017834488302469254,-0.025711476802825928,9.553367614746094,0.01,0.0,0.0,0.0,0.01,0.0,0.0,0.0,0.01
1648214348.2856994,14700,1648214348,284757308,fufi_imu_link,-0.004447143509975648,-0.00825220393360307,0.01352540412579601,0.9998645845753683,0.0,0.0,0.0,0.0,0.0,0.0,0.0,0.0,0.0,-0.009300109930336475,-0.010541880503296852,-0.014873839914798737,0.01,0.0,0.0,0.0,0.01,0.0,0.0,0.0,0.01,0.23639307916164398,0.02178674191236496,9.831830978393555,0.01,0.0,0.0,0.0,0.01,0.0,0.0,0.0,0.01
1648214348.305198,14701,1648214348,304420212,fufi_imu_link,-0.0043673120711711835,-0.008314933358857326,0.013416893671587517,0.9998658787220994,0.0,0.0,0.0,0.0,0.0,0.0,0.0,0.0,0.0,0.011188557371497154,-0.007341594435274601,-0.011194298043847084,0.01,0.0,0.0,0.0,0.01,0.0,0.0,0.0,0.01,0.12047433853149414,-0.20107215642929077,9.27984619140625,0.01,0.0,0.0,0.0,0.01,0.0,0.0,0.0,0.01
1648214348.313788,14702,1648214348,313109557,fufi_imu_link,-0.00436994052898459,-0.00832928648360584,0.01335126633213202,0.9998666262526097,0.0,0.0,0.0,0.0,0.0,0.0,0.0,0.0,0.0,-0.00036055786767974496,-0.0002477695234119892,-0.015095057897269726,0.01,0.0,0.0,0.0,0.01,0.0,0.0,0.0,0.01,0.2004287838935852,-0.08939635753631592,9.237310409545898,0.01,0.0,0.0,0.0,0.01,0.0,0.0,0.0,0.01
1648214348.36027,14703,1648214348,359486895,fufi_imu_link,-0.004350868412527598,-0.008665233028415927,0.013077223195292711,0.9998674761757784,0.0,0.0,0.0,0.0,0.0,0.0,0.0,0.0,0.0,0.001246551051735878,-0.012390529736876488,-0.01188075914978981,0.01,0.0,0.0,0.0,0.01,0.0,0.0,0.0,0.01,0.3544773757457733,-0.15216264128684998,9.793752670288086,0.01,0.0,0.0,0.0,0.01,0.0,0.0,0.0,0.01
1648214348.3610666,14704,1648214348,360383754,fufi_imu_link,-0.004390387456933057,-0.008745678844239378,0.013072501191440123,0.9998666647669234,0.0,0.0,0.0,0.0,0.0,0.0,0.0,0.0,0.0,0.0013473671860992908,-0.01647672988474369,-0.01066124252974987,0.01,0.0,0.0,0.0,0.01,0.0,0.0,0.0,0.01,0.4384610056877136,-0.24098747968673706,9.473916053771973,0.01,0.0,0.0,0.0,0.01,0.0,0.0,0.0,0.01
1648214348.379828,14705,1648214348,379141347,fufi_imu_link,-0.004374319506953052,-0.008935491865572102,0.012968459140818742,0.9998664117678343,0.0,0.0,0.0,0.0,0.0,0.0,0.0,0.0,0.0,0.0022606411948800087,-0.013623978942632675,-0.01115206629037857,0.01,0.0,0.0,0.0,0.01,0.0,0.0,0.0,0.01,0.39842140674591064,-0.11638423800468445,9.403593063354492,0.01,0.0,0.0,0.0,0.01,0.0,0.0,0.0,0.01
1648214348.3924894,14706,1648214348,391718609,fufi_imu_link,-0.0043030315784411575,-0.009014382435362256,0.012895795953411152,0.9998669527868556,0.0,0.0,0.0,0.0,0.0,0.0,0.0,0.0,0.0,0.009533452801406384,-0.002964701969176531,-0.011596841737627983,0.01,0.0,0.0,0.0,0.01,0.0,0.0,0.0,0.01,0.3961414694786072,-0.046893589198589325,9.396810531616211,0.01,0.0,0.0,0.0,0.01,0.0,0.0,0.0,0.01
1648214348.434838,14707,1648214348,434325928,fufi_imu_link,-0.004677345348913863,-0.008848262141021485,0.012857235206455977,0.999867252289231,0.0,0.0,0.0,0.0,0.0,0.0,0.0,0.0,0.0,-0.018326055258512497,0.01151055283844471,-0.0015710555016994476,0.01,0.0,0.0,0.0,0.01,0.0,0.0,0.0,0.01,0.45883357524871826,-0.023680774495005608,9.738940238952637,0.01,0.0,0.0,0.0,0.01,0.0,0.0,0.0,0.01
1648214348.4353516,14708,1648214348,434983680,fufi_imu_link,-0.004635893947199908,-0.008928083721435024,0.01285638325270837,0.9998667467307996,0.0,0.0,0.0,0.0,0.0,0.0,0.0,0.0,0.0,-0.012824472039937973,0.0031927782110869884,-6.306730210781097e-05,0.01,0.0,0.0,0.0,0.01,0.0,0.0,0.0,0.01,0.4923989474773407,0.08128628134727478,9.813424110412598,0.01,0.0,0.0,0.0,0.01,0.0,0.0,0.0,0.01
1648214348.500592,14709,1648214348,500085041,fufi_imu_link,-0.004466950274297956,-0.008729009267291461,0.012829586309920465,0.9998696177340198,0.0,0.0,0.0,0.0,0.0,0.0,0.0,0.0,0.0,0.0052192904986441135,0.006761589553207159,-0.0008349008858203888,0.01,0.0,0.0,0.0,0.01,0.0,0.0,0.0,0.01,0.26288992166519165,-0.08536779880523682,9.908788681030273,0.01,0.0,0.0,0.0,0.01,0.0,0.0,0.0,0.01
1648214348.5095823,14710,1648214348,509376008,fufi_imu_link,-0.004414265464322728,-0.008779725939643511,0.0128068446318031,0.9998696992125585,0.0,0.0,0.0,0.0,0.0,0.0,0.0,0.0,0.0,0.00563142029568553,-0.0034511606208980083,-0.004877567291259766,0.01,0.0,0.0,0.0,0.01,0.0,0.0,0.0,0.01,0.3086552619934082,0.01145952008664608,9.802800178527832,0.01,0.0,0.0,0.0,0.01,0.0,0.0,0.0,0.01
1648214348.5558095,14711,1648214348,555504137,fufi_imu_link,-0.004139799215717803,-0.008561752289196712,0.012662656557622894,0.9998745999319594,0.0,0.0,0.0,0.0,0.0,0.0,0.0,0.0,0.0,0.011974387802183628,0.008470023050904274,-0.00632396899163723,0.01,0.0,0.0,0.0,0.01,0.0,0.0,0.0,0.01,0.08739149570465088,-0.08188644796609879,9.546297073364258,0.01,0.0,0.0,0.0,0.01,0.0,0.0,0.0,0.01
1648214348.5757067,14712,1648214348,575045847,fufi_imu_link,-0.004035696424444467,-0.008443329217881946,0.012629901085884123,0.999876446839633,0.0,0.0,0.0,0.0,0.0,0.0,0.0,0.0,0.0,0.010234133340418339,0.012301405891776085,-0.003383643925189972,0.01,0.0,0.0,0.0,0.01,0.0,0.0,0.0,0.01,0.17547954618930817,-0.06024863198399544,9.769733428955078,0.01,0.0,0.0,0.0,0.01,0.0,0.0,0.0,0.01
1648214348.5942228,14713,1648214348,593020128,fufi_imu_link,-0.004070114357106052,-0.008392986235777623,0.01260990719086871,0.999876983529376,0.0,0.0,0.0,0.0,0.0,0.0,0.0,0.0,0.0,-0.006487438455224037,0.005393212661147118,-0.0021271109580993652,0.01,0.0,0.0,0.0,0.01,0.0,0.0,0.0,0.01,0.15489964187145233,0.013244754634797573,9.845134735107422,0.01,0.0,0.0,0.0,0.01,0.0,0.0,0.0,0.01
1648214348.6313426,14714,1648214348,630751147,fufi_imu_link,-0.0037692811870623007,-0.008523513019336832,0.012729993668067577,0.9998755370076583,0.0,0.0,0.0,0.0,0.0,0.0,0.0,0.0,0.0,0.014318704605102539,-0.008440348319709301,0.006219921633601189,0.01,0.0,0.0,0.0,0.01,0.0,0.0,0.0,0.01,0.06940828263759613,0.040284961462020874,9.600183486938477,0.01,0.0,0.0,0.0,0.01,0.0,0.0,0.0,0.01
1648214348.639104,14715,1648214348,638463878,fufi_imu_link,-0.003728795393997484,-0.008516955301815546,0.012750083457320307,0.9998754887130337,0.0,0.0,0.0,0.0,0.0,0.0,0.0,0.0,0.0,-0.004375707358121872,-0.00030131498351693153,0.005364840850234032,0.01,0.0,0.0,0.0,0.01,0.0,0.0,0.0,0.01,0.13643676042556763,0.14764386415481567,9.674652099609375,0.01,0.0,0.0,0.0,0.01,0.0,0.0,0.0,0.01
1648214348.668411,14716,1648214348,667701379,fufi_imu_link,-0.003590948621808063,-0.008506807551029392,0.012880565506852718,0.9998744072859896,0.0,0.0,0.0,0.0,0.0,0.0,0.0,0.0,0.0,0.00869046337902546,-0.0011839591898024082,0.008848702535033226,0.01,0.0,0.0,0.0,0.01,0.0,0.0,0.0,0.01,0.06731823086738586,-0.025540238246321678,9.76960563659668,0.01,0.0,0.0,0.0,0.01,0.0,0.0,0.0,0.01
1648214348.6953392,14717,1648214348,694837984,fufi_imu_link,-0.003680913132534169,-0.008685366593042377,0.01304286386259171,0.9998704411012045,0.0,0.0,0.0,0.0,0.0,0.0,0.0,0.0,0.0,-0.006815753411501646,-0.015995942056179047,0.011953430250287056,0.01,0.0,0.0,0.0,0.01,0.0,0.0,0.0,0.01,0.016703154891729355,-0.06698621809482574,9.634509086608887,0.01,0.0,0.0,0.0,0.01,0.0,0.0,0.0,0.01
1648214348.714412,14718,1648214348,713826396,fufi_imu_link,-0.0037024703065977943,-0.008843950290512834,0.013134693569070795,0.999867769298388,0.0,0.0,0.0,0.0,0.0,0.0,0.0,0.0,0.0,0.001168648712337017,-0.017352156341075897,0.009565642103552818,0.01,0.0,0.0,0.0,0.01,0.0,0.0,0.0,0.01,0.14716826379299164,-0.20529422163963318,9.707283973693848,0.01,0.0,0.0,0.0,0.01,0.0,0.0,0.0,0.01
1648214348.7801945,14719,1648214348,779584673,fufi_imu_link,-0.004399180557646923,-0.0089358374279455,0.012998913924974324,0.9998659041374767,0.0,0.0,0.0,0.0,0.0,0.0,0.0,0.0,0.0,-0.02267231047153473,-0.001461144769564271,-0.003917694091796875,0.01,0.0,0.0,0.0,0.01,0.0,0.0,0.0,0.01,0.2985776662826538,0.08997964859008789,9.516406059265137,0.01,0.0,0.0,0.0,0.01,0.0,0.0,0.0,0.01
1648214348.7892802,14720,1648214348,788221248,fufi_imu_link,-0.004391507960371411,-0.008966366511106263,0.012994303493946853,0.9998657244881083,0.0,0.0,0.0,0.0,0.0,0.0,0.0,0.0,0.0,0.0076127913780510426,-0.00630587711930275,-0.0012125223875045776,0.01,0.0,0.0,0.0,0.01,0.0,0.0,0.0,0.01,0.18119880557060242,-0.18180057406425476,9.455179214477539,0.01,0.0,0.0,0.0,0.01,0.0,0.0,0.0,0.01
1648214348.8263237,14721,1648214348,825997409,fufi_imu_link,-0.004422495989103811,-0.008727348651605267,0.013028431344447356,0.9998672586355865,0.0,0.0,0.0,0.0,0.0,0.0,0.0,0.0,0.0,-0.0021323817782104015,0.0131832305341959,0.0018923319876194,0.01,0.0,0.0,0.0,0.01,0.0,0.0,0.0,0.01,0.2062576562166214,-0.038987163454294205,9.71804141998291,0.01,0.0,0.0,0.0,0.01,0.0,0.0,0.0,0.01
1648214348.8549817,14722,1648214348,854436335,fufi_imu_link,-0.004465434969337916,-0.008773684647820747,0.013145399299022436,0.9998651313179716,0.0,0.0,0.0,0.0,0.0,0.0,0.0,0.0,0.0,-0.0038924904074519873,-0.000944135244935751,0.008275467902421951,0.01,0.0,0.0,0.0,0.01,0.0,0.0,0.0,0.01,0.2934845983982086,-0.03900016099214554,9.614029884338379,0.01,0.0,0.0,0.0,0.01,0.0,0.0,0.0,0.01
1648214348.8632326,14723,1648214348,862826143,fufi_imu_link,-0.004458485623399758,-0.008811868268046969,0.013178547382213721,0.9998643901912236,0.0,0.0,0.0,0.0,0.0,0.0,0.0,0.0,0.0,-0.0025819982402026653,-0.0024363482370972633,0.007982771843671799,0.01,0.0,0.0,0.0,0.01,0.0,0.0,0.0,0.01,0.2718483507633209,-0.020385384559631348,9.45910930633545,0.01,0.0,0.0,0.0,0.01,0.0,0.0,0.0,0.01
1648214348.910391,14724,1648214348,909507907,fufi_imu_link,-0.004298103033120063,-0.008549139016035297,0.013385890156747368,0.9998646190745588,0.0,0.0,0.0,0.0,0.0,0.0,0.0,0.0,0.0,0.0067337555810809135,0.012351516634225845,0.008888840675354004,0.01,0.0,0.0,0.0,0.01,0.0,0.0,0.0,0.01,0.2763122618198395,-0.05305492505431175,9.733015060424805,0.01,0.0,0.0,0.0,0.01,0.0,0.0,0.0,0.01
1648214348.9107919,14725,1648214348,910321003,fufi_imu_link,-0.004288062559034638,-0.008578299111451382,0.013389241834447115,0.9998643675553914,0.0,0.0,0.0,0.0,0.0,0.0,0.0,0.0,0.0,0.00021221366478130221,0.008244920521974564,0.008841510862112045,0.01,0.0,0.0,0.0,0.01,0.0,0.0,0.0,0.01,0.294421523809433,-0.04886385798454285,9.798040390014648,0.01,0.0,0.0,0.0,0.01,0.0,0.0,0.0,0.01
1648214348.930213,14726,1648214348,929203253,fufi_imu_link,-0.004465766721670215,-0.008615268578008255,0.013484147024594018,0.9998619964044716,0.0,0.0,0.0,0.0,0.0,0.0,0.0,0.0,0.0,-0.01971525140106678,-0.0012923665344715118,0.010236550122499466,0.01,0.0,0.0,0.0,0.01,0.0,0.0,0.0,0.01,0.26014670729637146,-0.05636628344655037,9.931191444396973,0.01,0.0,0.0,0.0,0.01,0.0,0.0,0.0,0.01
1648214348.9384344,14727,1648214348,937855226,fufi_imu_link,-0.004573169244175972,-0.008678932560516522,0.013521511223690892,0.999860455757153,0.0,0.0,0.0,0.0,0.0,0.0,0.0,0.0,0.0,-0.028401631861925125,-0.011211764998733997,0.008877981454133987,0.01,0.0,0.0,0.0,0.01,0.0,0.0,0.0,0.01,0.22230523824691772,-0.033548928797245026,9.765618324279785,0.01,0.0,0.0,0.0,0.01,0.0,0.0,0.0,0.01
1648214348.9853115,14728,1648214348,984363851,fufi_imu_link,-0.004040433895292892,-0.008958411010027971,0.01340000014209892,0.9998619213482955,0.0,0.0,0.0,0.0,0.0,0.0,0.0,0.0,0.0,0.024303749203681946,-0.010832181200385094,-0.005494346842169762,0.01,0.0,0.0,0.0,0.01,0.0,0.0,0.0,0.01,0.30015549063682556,-0.22149890661239624,9.550850868225098,0.01,0.0,0.0,0.0,0.01,0.0,0.0,0.0,0.01
1648214348.985966,14729,1648214348,985338222,fufi_imu_link,-0.004010695928126158,-0.008997257238157383,0.01339600676790537,0.9998617457844045,0.0,0.0,0.0,0.0,0.0,0.0,0.0,0.0,0.0,0.016216611489653587,-0.0033986871130764484,-0.007640918716788292,0.01,0.0,0.0,0.0,0.01,0.0,0.0,0.0,0.01,0.310676634311676,0.001995440572500229,9.457174301147461,0.01,0.0,0.0,0.0,0.01,0.0,0.0,0.0,0.01
1648214349.0506532,14730,1648214349,50146983,fufi_imu_link,-0.0038847215931920565,-0.008889082053043857,0.012868137674819386,0.9998701436642559,0.0,0.0,0.0,0.0,0.0,0.0,0.0,0.0,0.0,0.003000326454639435,0.002645732369273901,-0.01630464196205139,0.01,0.0,0.0,0.0,0.01,0.0,0.0,0.0,0.01,0.07987728714942932,0.019950615242123604,9.34779167175293,0.01,0.0,0.0,0.0,0.01,0.0,0.0,0.0,0.01
1648214349.0596547,14731,1648214349,59355956,fufi_imu_link,-0.0038583215618083868,-0.008851284875151052,0.012798059894580873,0.9998714806282453,0.0,0.0,0.0,0.0,0.0,0.0,0.0,0.0,0.0,0.013174428604543209,0.00447888532653451,-0.015401708893477917,0.01,0.0,0.0,0.0,0.01,0.0,0.0,0.0,0.01,0.1051487922668457,-0.2108541578054428,9.743706703186035,0.01,0.0,0.0,0.0,0.01,0.0,0.0,0.0,0.01
1648214349.105777,14732,1648214349,105466602,fufi_imu_link,-0.004297010275698935,-0.008973646101505788,0.012627841849337084,0.9998707651434579,0.0,0.0,0.0,0.0,0.0,0.0,0.0,0.0,0.0,-0.01945391483604908,-0.0056619178503751755,-0.007233761250972748,0.01,0.0,0.0,0.0,0.01,0.0,0.0,0.0,0.01,0.11546967923641205,-0.058400046080350876,9.555459022521973,0.01,0.0,0.0,0.0,0.01,0.0,0.0,0.0,0.01
1648214349.1252704,14733,1648214349,124935921,fufi_imu_link,-0.004391583626891892,-0.009038660833149107,0.012612954373045809,0.9998699565371363,0.0,0.0,0.0,0.0,0.0,0.0,0.0,0.0,0.0,-0.010881158523261547,-0.008859168738126755,-0.0014710575342178345,0.01,0.0,0.0,0.0,0.01,0.0,0.0,0.0,0.01,0.0852753221988678,-0.046057283878326416,9.457898139953613,0.01,0.0,0.0,0.0,0.01,0.0,0.0,0.0,0.01
1648214349.1451516,14734,1648214349,142874543,fufi_imu_link,-0.004327164433070176,-0.00910162182395675,0.01263071539003835,0.999869442055751,0.0,0.0,0.0,0.0,0.0,0.0,0.0,0.0,0.0,0.008137855678796768,-0.010692073032259941,0.0018344148993492126,0.01,0.0,0.0,0.0,0.01,0.0,0.0,0.0,0.01,0.05097825825214386,-0.11996155977249146,9.555898666381836,0.01,0.0,0.0,0.0,0.01,0.0,0.0,0.0,0.01
1648214349.1829183,14735,1648214349,180629599,fufi_imu_link,-0.004747194356117064,-0.009218983712072252,0.012882780096937075,0.9998632448800365,0.0,0.0,0.0,0.0,0.0,0.0,0.0,0.0,0.0,-0.023624002933502197,-0.006303776521235704,0.013553604483604431,0.01,0.0,0.0,0.0,0.01,0.0,0.0,0.0,0.01,0.15591458976268768,0.009028643369674683,9.740966796875,0.01,0.0,0.0,0.0,0.01,0.0,0.0,0.0,0.01
1648214349.1892614,14736,1648214349,188563315,fufi_imu_link,-0.0048113608889957995,-0.009230339815424943,0.012941697402176483,0.999862072538827,0.0,0.0,0.0,0.0,0.0,0.0,0.0,0.0,0.0,-0.023906318470835686,-0.01292650867253542,0.0150332972407341,0.01,0.0,0.0,0.0,0.01,0.0,0.0,0.0,0.01,0.02149864099919796,0.024120621383190155,9.628625869750977,0.01,0.0,0.0,0.0,0.01,0.0,0.0,0.0,0.01
1648214349.2184868,14737,1648214349,217777058,fufi_imu_link,-0.0050019133390381875,-0.009481750030492413,0.013068968695323422,0.9998571294622791,0.0,0.0,0.0,0.0,0.0,0.0,0.0,0.0,0.0,-0.015330886468291283,-0.018591681495308876,0.008778579533100128,0.01,0.0,0.0,0.0,0.01,0.0,0.0,0.0,0.01,0.09703391790390015,0.021297503262758255,9.628118515014648,0.01,0.0,0.0,0.0,0.01,0.0,0.0,0.0,0.01
1648214349.2454565,14738,1648214349,244777530,fufi_imu_link,-0.00489050435815015,-0.009315713590099643,0.01309573987279273,0.9998588910664417,0.0,0.0,0.0,0.0,0.0,0.0,0.0,0.0,0.0,0.007349305786192417,0.014069374650716782,0.002003651112318039,0.01,0.0,0.0,0.0,0.01,0.0,0.0,0.0,0.01,0.27151426672935486,-0.03986774757504463,9.473479270935059,0.01,0.0,0.0,0.0,0.01,0.0,0.0,0.0,0.01
1648214349.2565095,14739,1648214349,255500088,fufi_imu_link,-0.004880039255027394,-0.009234558262683022,0.013093914513409667,0.9998597189372508,0.0,0.0,0.0,0.0,0.0,0.0,0.0,0.0,0.0,0.0006435565883293748,0.01753632165491581,-0.00023462064564228058,0.01,0.0,0.0,0.0,0.01,0.0,0.0,0.0,0.01,0.23218297958374023,-0.06705692410469055,9.873046875,0.01,0.0,0.0,0.0,0.01,0.0,0.0,0.0,0.01
1648214349.264303,14740,1648214349,263400635,fufi_imu_link,-0.004877445838209472,-0.009160380603648946,0.013092886869300215,0.999860427391103,0.0,0.0,0.0,0.0,0.0,0.0,0.0,0.0,0.0,-0.0007543573155999184,0.01925741136074066,-0.00014176778495311737,0.01,0.0,0.0,0.0,0.01,0.0,0.0,0.0,0.01,0.18706484138965607,-0.07292729616165161,9.86538028717041,0.01,0.0,0.0,0.0,0.01,0.0,0.0,0.0,0.01
1648214349.2932057,14741,1648214349,292602457,fufi_imu_link,-0.005070271760253679,-0.00906820017246619,0.013100618993206628,0.9998602071649337,0.0,0.0,0.0,0.0,0.0,0.0,0.0,0.0,0.0,-0.01585690677165985,0.00790091697126627,0.0007454939186573029,0.01,0.0,0.0,0.0,0.01,0.0,0.0,0.0,0.01,0.2515574097633362,0.05319049209356308,9.582690238952637,0.01,0.0,0.0,0.0,0.01,0.0,0.0,0.0,0.01
1648214349.3303797,14742,1648214349,329625762,fufi_imu_link,-0.005023198575782327,-0.00902091294870094,0.01314774132747484,0.9998602539873391,0.0,0.0,0.0,0.0,0.0,0.0,0.0,0.0,0.0,0.0029662619344890118,0.005811536218971014,0.0025625918060541153,0.01,0.0,0.0,0.0,0.01,0.0,0.0,0.0,0.01,0.4109629690647125,-0.12630459666252136,9.720479011535645,0.01,0.0,0.0,0.0,0.01,0.0,0.0,0.0,0.01
1648214349.3390186,14743,1648214349,338320783,fufi_imu_link,-0.005001379929963942,-0.009112854609710069,0.013148470004013799,0.9998595200407966,0.0,0.0,0.0,0.0,0.0,0.0,0.0,0.0,0.0,0.0067938766442239285,0.0024845805019140244,0.00022456608712673187,0.01,0.0,0.0,0.0,0.01,0.0,0.0,0.0,0.01,0.5778639316558838,-0.13478466868400574,9.765110969543457,0.01,0.0,0.0,0.0,0.01,0.0,0.0,0.0,0.01
1648214349.3769133,14744,1648214349,376349446,fufi_imu_link,-0.00494643026333698,-0.010749293753535435,0.012757425547628804,0.9998486053422523,0.0,0.0,0.0,0.0,0.0,0.0,0.0,0.0,0.0,0.005817832425236702,-0.05689925327897072,-0.02079908549785614,0.01,0.0,0.0,0.0,0.01,0.0,0.0,0.0,0.01,2.3501157760620117,-0.4095158576965332,9.513795852661133,0.01,0.0,0.0,0.0,0.01,0.0,0.0,0.0,0.01
1648214349.4047132,14745,1648214349,404392236,fufi_imu_link,-0.0046574460982226895,-0.011542168498475888,0.012517446547250713,0.9998441878983604,0.0,0.0,0.0,0.0,0.0,0.0,0.0,0.0,0.0,0.02020951360464096,-0.014872115105390549,-0.01720738410949707,0.01,0.0,0.0,0.0,0.01,0.0,0.0,0.0,0.01,2.4021105766296387,-0.11392614245414734,9.137566566467285,0.01,0.0,0.0,0.0,0.01,0.0,0.0,0.0,0.01
1648214349.413101,14746,1648214349,412730544,fufi_imu_link,-0.004737113098992277,-0.012225832352969587,0.012427346232849187,0.9998368116089612,0.0,0.0,0.0,0.0,0.0,0.0,0.0,0.0,0.0,-0.00773715041577816,-0.0047797248698771,-0.020912664011120796,0.01,0.0,0.0,0.0,0.01,0.0,0.0,0.0,0.01,2.773090362548828,-0.310275673866272,9.332573890686035,0.01,0.0,0.0,0.0,0.01,0.0,0.0,0.0,0.01
1648214349.4599106,14747,1648214349,459506346,fufi_imu_link,-0.004628878773672651,-0.013036352221691137,0.01227080405698613,0.9998290125665716,0.0,0.0,0.0,0.0,0.0,0.0,0.0,0.0,0.0,0.0036430424079298973,-0.004913234617561102,-0.006608851253986359,0.01,0.0,0.0,0.0,0.01,0.0,0.0,0.0,0.01,2.990571975708008,-0.04761287569999695,9.534286499023438,0.01,0.0,0.0,0.0,0.01,0.0,0.0,0.0,0.01
1648214349.460281,14748,1648214349,459910591,fufi_imu_link,-0.004636578882590301,-0.013701064266858463,0.012266596225654859,0.9998201406209307,0.0,0.0,0.0,0.0,0.0,0.0,0.0,0.0,0.0,-0.008087717927992344,-0.010430592112243176,-0.0054368190467357635,0.01,0.0,0.0,0.0,0.01,0.0,0.0,0.0,0.01,2.89434814453125,-0.14948603510856628,9.636833190917969,0.01,0.0,0.0,0.0,0.01,0.0,0.0,0.0,0.01
1648214349.4795387,14749,1648214349,479196970,fufi_imu_link,-0.004534998193865937,-0.014363001859857456,0.012222501420588333,0.9998118565150041,0.0,0.0,0.0,0.0,0.0,0.0,0.0,0.0,0.0,0.006978735327720642,-0.0015049062203615904,-0.004309909418225288,0.01,0.0,0.0,0.0,0.01,0.0,0.0,0.0,0.01,2.7717416286468506,0.010200103744864464,9.376075744628906,0.01,0.0,0.0,0.0,0.01,0.0,0.0,0.0,0.01
1648214349.4880507,14750,1648214349,487546610,fufi_imu_link,-0.004451584486584282,-0.014809107914315627,0.012218411570836835,0.9998057732064898,0.0,0.0,0.0,0.0,0.0,0.0,0.0,0.0,0.0,0.011777943931519985,0.019291721284389496,-0.0003522653132677078,0.01,0.0,0.0,0.0,0.01,0.0,0.0,0.0,0.01,2.2967300415039062,0.022794749587774277,9.389004707336426,0.01,0.0,0.0,0.0,0.01,0.0,0.0,0.0,0.01
1648214349.535099,14751,1648214349,534388810,fufi_imu_link,-0.00428540188323944,-0.01494819541360055,0.012651677333497898,0.9997990407302985,0.0,0.0,0.0,0.0,0.0,0.0,0.0,0.0,0.0,0.00642705662176013,0.006405568681657314,0.01850709319114685,0.01,0.0,0.0,0.0,0.01,0.0,0.0,0.0,0.01,1.416935682296753,-0.008085541427135468,9.600434303283691,0.01,0.0,0.0,0.0,0.01,0.0,0.0,0.0,0.01
1648214349.536137,14752,1648214349,535500785,fufi_imu_link,-0.004279835009092196,-0.015177175529214316,0.012660794341903278,0.9997954994106957,0.0,0.0,0.0,0.0,0.0,0.0,0.0,0.0,0.0,0.0002827903372235596,0.0015699025243520737,0.018404323607683182,0.01,0.0,0.0,0.0,0.01,0.0,0.0,0.0,0.01,1.1833274364471436,-0.07629171013832092,9.666290283203125,0.01,0.0,0.0,0.0,0.01,0.0,0.0,0.0,0.01
1648214349.6013708,14753,1648214349,600600658,fufi_imu_link,-0.004516965893589948,-0.014863093741180437,0.012771284170366989,0.9997977694334974,0.0,0.0,0.0,0.0,0.0,0.0,0.0,0.0,0.0,-0.00745165441185236,0.008359743282198906,0.0035424530506134033,0.01,0.0,0.0,0.0,0.01,0.0,0.0,0.0,0.01,0.11477876454591751,-0.04800660163164139,9.63689136505127,0.01,0.0,0.0,0.0,0.01,0.0,0.0,0.0,0.01
1648214349.6648753,14754,1648214349,664572742,fufi_imu_link,-0.004944321879749086,-0.014041820023550814,0.01252056802649403,0.9998107902737746,0.0,0.0,0.0,0.0,0.0,0.0,0.0,0.0,0.0,-0.01368215773254633,0.016234969720244408,-0.007606716826558113,0.01,0.0,0.0,0.0,0.01,0.0,0.0,0.0,0.01,-0.9315026998519897,-0.03336382657289505,9.781173706054688,0.01,0.0,0.0,0.0,0.01,0.0,0.0,0.0,0.01
1648214349.6930745,14755,1648214349,692857305,fufi_imu_link,-0.00523904274212622,-0.013604427112808206,0.012595100750540178,0.9998144004919924,0.0,0.0,0.0,0.0,0.0,0.0,0.0,0.0,0.0,-0.019846783950924873,0.0032257139682769775,0.005402822047472,0.01,0.0,0.0,0.0,0.01,0.0,0.0,0.0,0.01,-1.3143969774246216,-0.13829410076141357,10.026844024658203,0.01,0.0,0.0,0.0,0.01,0.0,0.0,0.0,0.01
1648214349.730513,14756,1648214349,730272172,fufi_imu_link,-0.005066972377984324,-0.013282538878401987,0.01274481118682408,0.9998177182565213,0.0,0.0,0.0,0.0,0.0,0.0,0.0,0.0,0.0,0.009105912409722805,-0.004633734002709389,0.007744282484054565,0.01,0.0,0.0,0.0,0.01,0.0,0.0,0.0,0.01,-1.3317290544509888,-0.07174636423587799,9.791097640991211,0.01,0.0,0.0,0.0,0.01,0.0,0.0,0.0,0.01
1648214349.7394967,14757,1648214349,739107136,fufi_imu_link,-0.0050727931139933685,-0.012945246312423301,0.01276359443336269,0.9998218731479493,0.0,0.0,0.0,0.0,0.0,0.0,0.0,0.0,0.0,-0.0024468563497066498,-0.004741341806948185,0.003850594162940979,0.01,0.0,0.0,0.0,0.01,0.0,0.0,0.0,0.01,-1.145037293434143,-0.06485287845134735,9.747106552124023,0.01,0.0,0.0,0.0,0.01,0.0,0.0,0.0,0.01
1648214349.7501144,14758,1648214349,749840919,fufi_imu_link,-0.00501076852710415,-0.012741166546161125,0.012778984681868109,0.9998246108314756,0.0,0.0,0.0,0.0,0.0,0.0,0.0,0.0,0.0,0.010720842517912388,-0.013331279158592224,0.0024055056273937225,0.01,0.0,0.0,0.0,0.01,0.0,0.0,0.0,0.01,-0.8278510570526123,-0.07307461649179459,9.824819564819336,0.01,0.0,0.0,0.0,0.01,0.0,0.0,0.0,0.01
1648214349.768659,14759,1648214349,767849504,fufi_imu_link,-0.005090423299846165,-0.012579348385806289,0.012793705501399816,0.9998260692162215,0.0,0.0,0.0,0.0,0.0,0.0,0.0,0.0,0.0,-0.010287228040397167,-0.007115531247109175,0.001615285873413086,0.01,0.0,0.0,0.0,0.01,0.0,0.0,0.0,0.01,-0.6325108408927917,-0.04280640184879303,9.674925804138184,0.01,0.0,0.0,0.0,0.01,0.0,0.0,0.0,0.01
1648214349.806342,14760,1648214349,805544783,fufi_imu_link,-0.0049923467249871085,-0.012626731870197264,0.012902329723504663,0.9998245706143462,0.0,0.0,0.0,0.0,0.0,0.0,0.0,0.0,0.0,0.00466948002576828,-0.007448500022292137,0.005649058148264885,0.01,0.0,0.0,0.0,0.01,0.0,0.0,0.0,0.01,-0.10736675560474396,-0.05773648992180824,9.61042594909668,0.01,0.0,0.0,0.0,0.01,0.0,0.0,0.0,0.01
1648214349.814278,14761,1648214349,813388869,fufi_imu_link,-0.004996136767118538,-0.012573624486625442,0.012919313365508951,0.9998250016512077,0.0,0.0,0.0,0.0,0.0,0.0,0.0,0.0,0.0,0.0002450144966132939,-0.005342813208699226,0.004188627004623413,0.01,0.0,0.0,0.0,0.01,0.0,0.0,0.0,0.01,-0.04282362014055252,-0.11409728229045868,9.62770938873291,0.01,0.0,0.0,0.0,0.01,0.0,0.0,0.0,0.01
1648214349.843377,14762,1648214349,842721266,fufi_imu_link,-0.004990057044090216,-0.012760181267483963,0.012854218952339312,0.9998235075051212,0.0,0.0,0.0,0.0,0.0,0.0,0.0,0.0,0.0,0.00043787513277493417,-0.015457112342119217,-0.00453963503241539,0.01,0.0,0.0,0.0,0.01,0.0,0.0,0.0,0.01,0.09184287488460541,-0.11577638983726501,9.864598274230957,0.01,0.0,0.0,0.0,0.01,0.0,0.0,0.0,0.01
1648214349.8804698,14763,1648214349,879692899,fufi_imu_link,-0.005108337250957466,-0.012845543642990547,0.012692047628447042,0.9998238889054631,0.0,0.0,0.0,0.0,0.0,0.0,0.0,0.0,0.0,-0.007213480304926634,-0.0013204850256443024,-0.008663365617394447,0.01,0.0,0.0,0.0,0.01,0.0,0.0,0.0,0.01,0.4668691158294678,-0.055238112807273865,9.542501449584961,0.01,0.0,0.0,0.0,0.01,0.0,0.0,0.0,0.01
1648214349.889053,14764,1648214349,888255512,fufi_imu_link,-0.005049231618281883,-0.012916133248029725,0.012660030525941024,0.9998236856511583,0.0,0.0,0.0,0.0,0.0,0.0,0.0,0.0,0.0,0.008570444770157337,0.003253839910030365,-0.007403241470456123,0.01,0.0,0.0,0.0,0.01,0.0,0.0,0.0,0.01,0.5713803768157959,-0.01929527148604393,9.579477310180664,0.01,0.0,0.0,0.0,0.01,0.0,0.0,0.0,0.01
1648214349.9269876,14765,1648214349,926476340,fufi_imu_link,-0.005265869769006944,-0.013154112124857596,0.012814108418099886,0.9998175026349718,0.0,0.0,0.0,0.0,0.0,0.0,0.0,0.0,0.0,-0.01169055700302124,-0.0052159689366817474,0.008232537657022476,0.01,0.0,0.0,0.0,0.01,0.0,0.0,0.0,0.01,0.7722876667976379,-0.08218333125114441,9.5775146484375,0.01,0.0,0.0,0.0,0.01,0.0,0.0,0.0,0.01
1648214349.9551795,14766,1648214349,954524305,fufi_imu_link,-0.005169788587592586,-0.013377608105095187,0.012996136173254893,0.999812689123274,0.0,0.0,0.0,0.0,0.0,0.0,0.0,0.0,0.0,0.005450514145195484,-0.004283175803720951,0.01297108456492424,0.01,0.0,0.0,0.0,0.01,0.0,0.0,0.0,0.01,0.8913142085075378,-0.029343534260988235,9.60179328918457,0.01,0.0,0.0,0.0,0.01,0.0,0.0,0.0,0.01
1648214349.9638937,14767,1648214349,963120979,fufi_imu_link,-0.005168576926348316,-0.01353700612638613,0.013044125827200713,0.999809924965288,0.0,0.0,0.0,0.0,0.0,0.0,0.0,0.0,0.0,-0.005735225509852171,0.0016783596947789192,0.011542748659849167,0.01,0.0,0.0,0.0,0.01,0.0,0.0,0.0,0.01,0.8904462456703186,-0.008900538086891174,9.508606910705566,0.01,0.0,0.0,0.0,0.01,0.0,0.0,0.0,0.01
1648214350.0102625,14768,1648214350,9525603,fufi_imu_link,-0.005268895854006055,-0.013533627646936629,0.012971164244131262,0.999810396303892,0.0,0.0,0.0,0.0,0.0,0.0,0.0,0.0,0.0,-0.004237900022417307,0.005014627706259489,-0.003036588430404663,0.01,0.0,0.0,0.0,0.01,0.0,0.0,0.0,0.01,0.6866083145141602,-0.11596259474754333,9.623056411743164,0.01,0.0,0.0,0.0,0.01,0.0,0.0,0.0,0.01
1648214350.012373,14769,1648214350,11269775,fufi_imu_link,-0.005262453222735026,-0.013629228195288097,0.01296692868079963,0.9998091865378445,0.0,0.0,0.0,0.0,0.0,0.0,0.0,0.0,0.0,-0.0029791302513331175,0.0034651285968720913,-0.0040438417345285416,0.01,0.0,0.0,0.0,0.01,0.0,0.0,0.0,0.01,0.6369182467460632,-0.07465189695358276,9.577592849731445,0.01,0.0,0.0,0.0,0.01,0.0,0.0,0.0,0.01
1648214350.030097,14770,1648214350,29245729,fufi_imu_link,-0.005275461104670144,-0.013680418632052483,0.012915112158544411,0.9998090895436574,0.0,0.0,0.0,0.0,0.0,0.0,0.0,0.0,0.0,-0.0005684566567651927,0.003994193393737078,-0.005697108805179596,0.01,0.0,0.0,0.0,0.01,0.0,0.0,0.0,0.01,0.5957778692245483,-0.14078262448310852,9.641477584838867,0.01,0.0,0.0,0.0,0.01,0.0,0.0,0.0,0.01
1648214350.0386086,14771,1648214350,37923048,fufi_imu_link,-0.0052891578587480614,-0.01372502700105479,0.012898364682408793,0.9998086220029738,0.0,0.0,0.0,0.0,0.0,0.0,0.0,0.0,0.0,-0.005146474111825228,0.004413661081343889,-0.0036599617451429367,0.01,0.0,0.0,0.0,0.01,0.0,0.0,0.0,0.01,0.5072281360626221,-0.07530314475297928,9.63690185546875,0.01,0.0,0.0,0.0,0.01,0.0,0.0,0.0,0.01
1648214350.0851572,14772,1648214350,84424861,fufi_imu_link,-0.005178618914737874,-0.01363335568906161,0.012967246397509851,0.9998095638868724,0.0,0.0,0.0,0.0,0.0,0.0,0.0,0.0,0.0,0.004818572197109461,0.0032985773868858814,0.0029116347432136536,0.01,0.0,0.0,0.0,0.01,0.0,0.0,0.0,0.01,0.2113550305366516,-0.10108114778995514,9.65589714050293,0.01,0.0,0.0,0.0,0.01,0.0,0.0,0.0,0.01
1648214350.0859401,14773,1648214350,85284652,fufi_imu_link,-0.005169772733165429,-0.013612585795411612,0.012968830047759703,0.9998098721282174,0.0,0.0,0.0,0.0,0.0,0.0,0.0,0.0,0.0,-1.8417485989630222e-05,0.00587629247456789,0.0037691202014684677,0.01,0.0,0.0,0.0,0.01,0.0,0.0,0.0,0.01,0.19150622189044952,-0.06794188916683197,9.632808685302734,0.01,0.0,0.0,0.0,0.01,0.0,0.0,0.0,0.01
1648214350.1134596,14774,1648214350,112723469,fufi_imu_link,-0.0051120860499405275,-0.01356092642873568,0.013010524743415207,0.9998103290607241,0.0,0.0,0.0,0.0,0.0,0.0,0.0,0.0,0.0,0.004334975965321064,0.0011717714369297028,0.002972383052110672,0.01,0.0,0.0,0.0,0.01,0.0,0.0,0.0,0.01,0.126377135515213,-0.10332875698804855,9.566530227661133,0.01,0.0,0.0,0.0,0.01,0.0,0.0,0.0,0.01
1648214350.1512797,14775,1648214350,150557037,fufi_imu_link,-0.005042969072407383,-0.013409562286056864,0.012910764025703417,0.9998140148420124,0.0,0.0,0.0,0.0,0.0,0.0,0.0,0.0,0.0,0.0027834256179630756,0.004074375610798597,-0.005300652235746384,0.01,0.0,0.0,0.0,0.01,0.0,0.0,0.0,0.01,-0.02643950656056404,-0.03513268381357193,9.66417121887207,0.01,0.0,0.0,0.0,0.01,0.0,0.0,0.0,0.01
1648214350.1608367,14776,1648214350,160071939,fufi_imu_link,-0.0050515669927257085,-0.013323344383494258,0.012884472563980117,0.9998154632391444,0.0,0.0,0.0,0.0,0.0,0.0,0.0,0.0,0.0,-0.005747856106609106,0.005022940691560507,-0.005441820248961449,0.01,0.0,0.0,0.0,0.01,0.0,0.0,0.0,0.01,0.015576234087347984,-0.02589261904358864,9.663932800292969,0.01,0.0,0.0,0.0,0.01,0.0,0.0,0.0,0.01
1648214350.226455,14777,1648214350,225562755,fufi_imu_link,-0.004951994497663114,-0.013295055715712026,0.012773568924263859,0.9998177609849449,0.0,0.0,0.0,0.0,0.0,0.0,0.0,0.0,0.0,0.004136932082474232,-0.002202792325988412,-0.0034847352653741837,0.01,0.0,0.0,0.0,0.01,0.0,0.0,0.0,0.01,-0.12622761726379395,-0.2382219433784485,9.53265380859375,0.01,0.0,0.0,0.0,0.01,0.0,0.0,0.0,0.01
1648214350.243747,14778,1648214350,243084524,fufi_imu_link,-0.004924286195882167,-0.013250584703113981,0.012786496914100925,0.999818322950301,0.0,0.0,0.0,0.0,0.0,0.0,0.0,0.0,0.0,0.0006672474555671215,-0.0012303628027439117,0.001461867243051529,0.01,0.0,0.0,0.0,0.01,0.0,0.0,0.0,0.01,0.043411288410425186,-0.01136578619480133,9.539466857910156,0.01,0.0,0.0,0.0,0.01,0.0,0.0,0.0,0.01
1648214350.2809606,14779,1648214350,280511903,fufi_imu_link,-0.005009562206554795,-0.013157298448296838,0.01280851975475451,0.9998188493950958,0.0,0.0,0.0,0.0,0.0,0.0,0.0,0.0,0.0,-0.0013019321486353874,0.0017168223857879639,0.0011436250060796738,0.01,0.0,0.0,0.0,0.01,0.0,0.0,0.0,0.01,0.013875316828489304,-0.32712844014167786,9.615058898925781,0.01,0.0,0.0,0.0,0.01,0.0,0.0,0.0,0.01
1648214350.2893991,14780,1648214350,289089423,fufi_imu_link,-0.0051616151859794155,-0.013121568523858729,0.012809951790091393,0.9998185271854494,0.0,0.0,0.0,0.0,0.0,0.0,0.0,0.0,0.0,-0.017774904146790504,-1.23525969684124e-05,0.0002912841737270355,0.01,0.0,0.0,0.0,0.01,0.0,0.0,0.0,0.01,0.10589772462844849,-0.38839051127433777,9.549155235290527,0.01,0.0,0.0,0.0,0.01,0.0,0.0,0.0,0.01
1648214350.3000302,14781,1648214350,299762080,fufi_imu_link,-0.005291070194158506,-0.013080355561112167,0.012812129061634247,0.999818362615682,0.0,0.0,0.0,0.0,0.0,0.0,0.0,0.0,0.0,-0.0097020473331213,0.00022790580987930298,0.00030559487640857697,0.01,0.0,0.0,0.0,0.01,0.0,0.0,0.0,0.01,0.08981499820947647,-0.3961469233036041,9.51314640045166,0.01,0.0,0.0,0.0,0.01,0.0,0.0,0.0,0.01
1648214350.3181155,14782,1648214350,317798374,fufi_imu_link,-0.0052956749543018,-0.013054436063203568,0.012799845376616626,0.9998188343315928,0.0,0.0,0.0,0.0,0.0,0.0,0.0,0.0,0.0,0.00873469840735197,-5.376897752285004e-05,-0.0016126986593008041,0.01,0.0,0.0,0.0,0.01,0.0,0.0,0.0,0.01,0.14963331818580627,-0.4281867742538452,9.712472915649414,0.01,0.0,0.0,0.0,0.01,0.0,0.0,0.0,0.01
1648214350.3556125,14783,1648214350,355277577,fufi_imu_link,-0.005395408280552022,-0.012989740907260492,0.012695360788049751,0.9998204758931023,0.0,0.0,0.0,0.0,0.0,0.0,0.0,0.0,0.0,-0.0007598227239213884,0.0030155517160892487,-0.005612781271338463,0.01,0.0,0.0,0.0,0.01,0.0,0.0,0.0,0.01,0.21039383113384247,-0.4370872974395752,9.626424789428711,0.01,0.0,0.0,0.0,0.01,0.0,0.0,0.0,0.01
1648214350.36376,14784,1648214350,363186166,fufi_imu_link,-0.005518989722416233,-0.012957153378771468,0.012675064162715837,0.9998204817252114,0.0,0.0,0.0,0.0,0.0,0.0,0.0,0.0,0.0,-0.009215458296239376,0.005584990605711937,-0.0052838437259197235,0.01,0.0,0.0,0.0,0.01,0.0,0.0,0.0,0.01,0.20371860265731812,-0.44812947511672974,9.734484672546387,0.01,0.0,0.0,0.0,0.01,0.0,0.0,0.0,0.01
1648214350.3935826,14785,1648214350,392642401,fufi_imu_link,-0.005601267498939801,-0.012958563780531278,0.01268423187836918,0.9998198896245298,0.0,0.0,0.0,0.0,0.0,0.0,0.0,0.0,0.0,0.0006412408547475934,0.000747364480048418,0.000543251633644104,0.01,0.0,0.0,0.0,0.01,0.0,0.0,0.0,0.01,0.2923611104488373,-0.4631463587284088,9.636481285095215,0.01,0.0,0.0,0.0,0.01,0.0,0.0,0.0,0.01
1648214350.420567,14786,1648214350,419871476,fufi_imu_link,-0.005594371571726334,-0.013010839061683734,0.012683566716483673,0.9998192577706118,0.0,0.0,0.0,0.0,0.0,0.0,0.0,0.0,0.0,0.008671659976243973,-0.0033364323899149895,-0.0002826731652021408,0.01,0.0,0.0,0.0,0.01,0.0,0.0,0.0,0.01,0.2769325375556946,-0.5425285696983337,9.665706634521484,0.01,0.0,0.0,0.0,0.01,0.0,0.0,0.0,0.01
1648214350.4389753,14787,1648214350,438322685,fufi_imu_link,-0.005654959704483774,-0.013010350053777415,0.012674456132533847,0.9998190388185072,0.0,0.0,0.0,0.0,0.0,0.0,0.0,0.0,0.0,0.0024959840811789036,0.0016526826657354832,-0.0011186935007572174,0.01,0.0,0.0,0.0,0.01,0.0,0.0,0.0,0.01,0.30077165365219116,-0.430666983127594,9.565949440002441,0.01,0.0,0.0,0.0,0.01,0.0,0.0,0.0,0.01
1648214350.477021,14788,1648214350,476358733,fufi_imu_link,-0.00575442847831516,-0.012977264828984555,0.01285807134311507,0.999816556750178,0.0,0.0,0.0,0.0,0.0,0.0,0.0,0.0,0.0,-0.0016687416937202215,0.0015253880992531776,0.009641727432608604,0.01,0.0,0.0,0.0,0.01,0.0,0.0,0.0,0.01,0.23458121716976166,-0.36697670817375183,9.729637145996094,0.01,0.0,0.0,0.0,0.01,0.0,0.0,0.0,0.01
1648214350.5052526,14789,1648214350,504516369,fufi_imu_link,-0.0058152864541707655,-0.013066582156422724,0.013060422386784464,0.9998124185272377,0.0,0.0,0.0,0.0,0.0,0.0,0.0,0.0,0.0,-0.00044219737173989415,-0.005962583236396313,0.014300553128123283,0.01,0.0,0.0,0.0,0.01,0.0,0.0,0.0,0.01,0.27285146713256836,-0.3198493421077728,9.644693374633789,0.01,0.0,0.0,0.0,0.01,0.0,0.0,0.0,0.01
1648214350.5141613,14790,1648214350,513347362,fufi_imu_link,-0.005831158089763452,-0.013093542596725754,0.013141302024568447,0.999810913582513,0.0,0.0,0.0,0.0,0.0,0.0,0.0,0.0,0.0,0.00517786992713809,-0.004448232240974903,0.01812625117599964,0.01,0.0,0.0,0.0,0.01,0.0,0.0,0.0,0.01,0.27758467197418213,-0.25943753123283386,9.550320625305176,0.01,0.0,0.0,0.0,0.01,0.0,0.0,0.0,0.01
1648214350.5603046,14791,1648214350,559615439,fufi_imu_link,-0.005682732974570124,-0.013179569043555618,0.013454774864262524,0.9998064685423463,0.0,0.0,0.0,0.0,0.0,0.0,0.0,0.0,0.0,0.008073102682828903,-0.0036426035221666098,0.013407422229647636,0.01,0.0,0.0,0.0,0.01,0.0,0.0,0.0,0.01,0.27573028206825256,-0.2505674958229065,9.698472023010254,0.01,0.0,0.0,0.0,0.01,0.0,0.0,0.0,0.01
1648214350.579962,14792,1648214350,579192794,fufi_imu_link,-0.005695663703797504,-0.013147522652206622,0.013516229368652806,0.9998059879830372,0.0,0.0,0.0,0.0,0.0,0.0,0.0,0.0,0.0,-0.0006129638641141355,-0.0007971911691129208,0.006250811740756035,0.01,0.0,0.0,0.0,0.01,0.0,0.0,0.0,0.01,0.0989520326256752,-0.13394802808761597,9.558091163635254,0.01,0.0,0.0,0.0,0.01,0.0,0.0,0.0,0.01
1648214350.588581,14793,1648214350,587963858,fufi_imu_link,-0.005713254386910252,-0.013118702211582215,0.01351003316018926,0.9998063499401296,0.0,0.0,0.0,0.0,0.0,0.0,0.0,0.0,0.0,0.00036159082083031535,-0.004478807561099529,-0.0015666428953409195,0.01,0.0,0.0,0.0,0.01,0.0,0.0,0.0,0.01,0.06466299295425415,-0.18674278259277344,9.678107261657715,0.01,0.0,0.0,0.0,0.01,0.0,0.0,0.0,0.01
1648214350.6351402,14794,1648214350,634454714,fufi_imu_link,-0.005571827425205387,-0.013191671741637321,0.013088913138579593,0.9998117897327754,0.0,0.0,0.0,0.0,0.0,0.0,0.0,0.0,0.0,0.0032152908388525248,-0.004487625323235989,-0.018161900341510773,0.01,0.0,0.0,0.0,0.01,0.0,0.0,0.0,0.01,0.13035675883293152,0.12019820511341095,9.642013549804688,0.01,0.0,0.0,0.0,0.01,0.0,0.0,0.0,0.01
1648214350.6358452,14795,1648214350,635288486,fufi_imu_link,-0.005531742830152425,-0.013170654414577113,0.01307966825888436,0.9998124103859636,0.0,0.0,0.0,0.0,0.0,0.0,0.0,0.0,0.0,0.003020048374310136,-0.008293719962239265,-0.021386688575148582,0.01,0.0,0.0,0.0,0.01,0.0,0.0,0.0,0.01,0.1611565798521042,0.03978995978832245,9.683177947998047,0.01,0.0,0.0,0.0,0.01,0.0,0.0,0.0,0.01
1648214350.66344,14796,1648214350,662670923,fufi_imu_link,-0.005387168861233357,-0.013187312629236059,0.012658872641027564,0.9998183965804679,0.0,0.0,0.0,0.0,0.0,0.0,0.0,0.0,0.0,0.0034207177814096212,-0.0015408375766128302,-0.03070836514234543,0.01,0.0,0.0,0.0,0.01,0.0,0.0,0.0,0.01,0.23525844514369965,0.2476341426372528,9.699628829956055,0.01,0.0,0.0,0.0,0.01,0.0,0.0,0.0,0.01
1648214350.7012627,14797,1648214350,700626636,fufi_imu_link,-0.005174091097892373,-0.013111397394682318,0.011862938244928973,0.9998302809656578,0.0,0.0,0.0,0.0,0.0,0.0,0.0,0.0,0.0,0.006575083360075951,0.002259647473692894,-0.04197827726602554,0.01,0.0,0.0,0.0,0.01,0.0,0.0,0.0,0.01,0.11733811348676682,0.19850210845470428,9.588842391967773,0.01,0.0,0.0,0.0,0.01,0.0,0.0,0.0,0.01
1648214350.711812,14798,1648214350,710521293,fufi_imu_link,-0.005067240921229906,-0.013007162887081359,0.011608351240621404,0.9998351778991122,0.0,0.0,0.0,0.0,0.0,0.0,0.0,0.0,0.0,-0.0012596988817676902,0.0061860959976911545,-0.05121050775051117,0.01,0.0,0.0,0.0,0.01,0.0,0.0,0.0,0.01,-0.0334496945142746,0.32540690898895264,9.640522003173828,0.01,0.0,0.0,0.0,0.01,0.0,0.0,0.0,0.01
1648214350.776159,14799,1648214350,775418945,fufi_imu_link,-0.005112048924528656,-0.012974465246773318,0.007342119353274205,0.9998758040330588,0.0,0.0,0.0,0.0,0.0,0.0,0.0,0.0,0.0,-0.004324411973357201,-0.0008275392465293407,-0.13144069910049438,0.01,0.0,0.0,0.0,0.01,0.0,0.0,0.0,0.01,-0.06714562326669693,0.05447547882795334,9.707841873168945,0.01,0.0,0.0,0.0,0.01,0.0,0.0,0.0,0.01
1648214350.794598,14800,1648214350,793270744,fufi_imu_link,-0.005104601089791327,-0.012915156365768295,0.005995802725051511,0.9998855895218434,0.0,0.0,0.0,0.0,0.0,0.0,0.0,0.0,0.0,-0.0012839757837355137,0.0017874217592179775,-0.15085190534591675,0.01,0.0,0.0,0.0,0.01,0.0,0.0,0.0,0.01,0.05548151209950447,-0.0929429829120636,9.654094696044922,0.01,0.0,0.0,0.0,0.01,0.0,0.0,0.0,0.01
1648214350.8313885,14801,1648214350,830710634,fufi_imu_link,-0.005095638368539904,-0.012922694157789167,0.0023155585685609467,0.9999008333999113,0.0,0.0,0.0,0.0,0.0,0.0,0.0,0.0,0.0,-0.0010187290608882904,-0.0016504372470080853,-0.19663690030574799,0.01,0.0,0.0,0.0,0.01,0.0,0.0,0.0,0.01,0.08727283775806427,-0.17485493421554565,9.677722930908203,0.01,0.0,0.0,0.0,0.01,0.0,0.0,0.0,0.01
1648214350.840104,14802,1648214350,839419450,fufi_imu_link,-0.00512181272368055,-0.01288126096352818,0.001437983342960848,0.9999028814611539,0.0,0.0,0.0,0.0,0.0,0.0,0.0,0.0,0.0,-0.0018059328431263566,0.0009410236962139606,-0.201665997505188,0.01,0.0,0.0,0.0,0.01,0.0,0.0,0.0,0.01,0.08733050525188446,-0.21213585138320923,9.614852905273438,0.01,0.0,0.0,0.0,0.01,0.0,0.0,0.0,0.01
1648214350.8503335,14803,1648214350,849958983,fufi_imu_link,-0.005169940305483524,-0.012803153125620205,0.00035597022922598465,0.9999046075863816,0.0,0.0,0.0,0.0,0.0,0.0,0.0,0.0,0.0,-0.011092218570411205,0.005344030912965536,-0.20523756742477417,0.01,0.0,0.0,0.0,0.01,0.0,0.0,0.0,0.01,0.033494554460048676,-0.11305826902389526,9.610610961914062,0.01,0.0,0.0,0.0,0.01,0.0,0.0,0.0,0.01
1648214350.868181,14804,1648214350,867849501,fufi_imu_link,-0.005233008421599506,-0.012771966601339039,-0.0014918303131498738,0.9999036288234534,0.0,0.0,0.0,0.0,0.0,0.0,0.0,0.0,0.0,-0.011210044845938683,0.002747694496065378,-0.20641988515853882,0.01,0.0,0.0,0.0,0.01,0.0,0.0,0.0,0.01,0.18395712971687317,-0.04851096123456955,9.621962547302246,0.01,0.0,0.0,0.0,0.01,0.0,0.0,0.0,0.01
1648214350.9057014,14805,1648214350,905310232,fufi_imu_link,-0.005125756409362156,-0.01283663330788281,-0.0051543698056291595,0.9998911840487732,0.0,0.0,0.0,0.0,0.0,0.0,0.0,0.0,0.0,0.002611944917589426,-0.0015838365070521832,-0.1955903321504593,0.01,0.0,0.0,0.0,0.01,0.0,0.0,0.0,0.01,0.3115023076534271,-0.0533941425383091,9.727964401245117,0.01,0.0,0.0,0.0,0.01,0.0,0.0,0.0,0.01
1648214350.913476,14806,1648214350,913169680,fufi_imu_link,-0.0051306514877908355,-0.012848625883275603,-0.005906050461597348,0.9998868474963393,0.0,0.0,0.0,0.0,0.0,0.0,0.0,0.0,0.0,-0.002703698817640543,0.0025193355977535248,-0.19124412536621094,0.01,0.0,0.0,0.0,0.01,0.0,0.0,0.0,0.01,0.3183400630950928,-0.11245787143707275,9.651152610778809,0.01,0.0,0.0,0.0,0.01,0.0,0.0,0.0,0.01
1648214350.9430647,14807,1648214350,942681798,fufi_imu_link,-0.005199000966773782,-0.012769743964745497,-0.008384234911651174,0.9998697958399226,0.0,0.0,0.0,0.0,0.0,0.0,0.0,0.0,0.0,-0.009262735024094582,0.006971290800720453,-0.16777412593364716,0.01,0.0,0.0,0.0,0.01,0.0,0.0,0.0,0.01,0.29239681363105774,0.03992934897542,9.63763427734375,0.01,0.0,0.0,0.0,0.01,0.0,0.0,0.0,0.01
1648214350.9705768,14808,1648214350,969893054,fufi_imu_link,-0.005171993049658805,-0.012765218093984367,-0.010365180547129387,0.9998514203256066,0.0,0.0,0.0,0.0,0.0,0.0,0.0,0.0,0.0,-0.002165446523576975,0.0002888822928071022,-0.14556340873241425,0.01,0.0,0.0,0.0,0.01,0.0,0.0,0.0,0.01,0.2043914794921875,0.02179602161049843,9.603012084960938,0.01,0.0,0.0,0.0,0.01,0.0,0.0,0.0,0.01
1648214350.9890912,14809,1648214350,988351844,fufi_imu_link,-0.005111375886417596,-0.012754759663966712,-0.011678753337479843,0.999837385109671,0.0,0.0,0.0,0.0,0.0,0.0,0.0,0.0,0.0,-0.0004904232919216156,0.00015989132225513458,-0.14228135347366333,0.01,0.0,0.0,0.0,0.01,0.0,0.0,0.0,0.01,0.18406535685062408,0.08894456923007965,9.612530708312988,0.01,0.0,0.0,0.0,0.01,0.0,0.0,0.0,0.01
1648214351.0551598,14810,1648214351,54552265,fufi_imu_link,-0.004941295932314166,-0.012837004948405598,-0.0169604706986379,0.9997615402345424,0.0,0.0,0.0,0.0,0.0,0.0,0.0,0.0,0.0,0.0033918304834514856,-0.0019415339920669794,-0.15965871512889862,0.01,0.0,0.0,0.0,0.01,0.0,0.0,0.0,0.01,0.21151980757713318,-0.1263391077518463,9.67508316040039,0.01,0.0,0.0,0.0,0.01,0.0,0.0,0.0,0.01
1648214351.0638783,14811,1648214351,63108655,fufi_imu_link,-0.004944269028358091,-0.012830897403446402,-0.01765367884070084,0.9997496036003151,0.0,0.0,0.0,0.0,0.0,0.0,0.0,0.0,0.0,-0.0014132787473499775,-0.00020090164616703987,-0.16208425164222717,0.01,0.0,0.0,0.0,0.01,0.0,0.0,0.0,0.01,0.2088535726070404,-0.11336226016283035,9.587449073791504,0.01,0.0,0.0,0.0,0.01,0.0,0.0,0.0,0.01
1648214351.1102736,14812,1648214351,109579605,fufi_imu_link,-0.005021791803653401,-0.012788509820813152,-0.021288450459580693,0.9996789672193138,0.0,0.0,0.0,0.0,0.0,0.0,0.0,0.0,0.0,-0.003987137693911791,0.0013375263661146164,-0.15644291043281555,0.01,0.0,0.0,0.0,0.01,0.0,0.0,0.0,0.01,0.14440184831619263,-0.21554125845432281,9.570755004882812,0.01,0.0,0.0,0.0,0.01,0.0,0.0,0.0,0.01
1648214351.130431,14813,1648214351,129337711,fufi_imu_link,-0.005003162448228911,-0.012771495203201227,-0.022857148467378945,0.9996446408798136,0.0,0.0,0.0,0.0,0.0,0.0,0.0,0.0,0.0,-0.0015606859233230352,-0.0031593062449246645,-0.15884757041931152,0.01,0.0,0.0,0.0,0.01,0.0,0.0,0.0,0.01,0.03308798745274544,-0.039402447640895844,9.599974632263184,0.01,0.0,0.0,0.0,0.01,0.0,0.0,0.0,0.01
1648214351.1386497,14814,1648214351,137980046,fufi_imu_link,-0.005004378564580397,-0.012764395935522246,-0.023558830511538217,0.9996284349179511,0.0,0.0,0.0,0.0,0.0,0.0,0.0,0.0,0.0,0.004363293759524822,-0.005269673652946949,-0.16264554858207703,0.01,0.0,0.0,0.0,0.01,0.0,0.0,0.0,0.01,0.12194759398698807,-0.20440751314163208,9.698898315429688,0.01,0.0,0.0,0.0,0.01,0.0,0.0,0.0,0.01
1648214351.185051,14815,1648214351,184457274,fufi_imu_link,-0.0050788451067888575,-0.012829078096109852,-0.02778338569336615,0.999518735975969,0.0,0.0,0.0,0.0,0.0,0.0,0.0,0.0,0.0,-0.004235059022903442,-0.0024224002845585346,-0.1818447709083557,0.01,0.0,0.0,0.0,0.01,0.0,0.0,0.0,0.01,0.21492990851402283,-0.20373119413852692,9.701502799987793,0.01,0.0,0.0,0.0,0.01,0.0,0.0,0.0,0.01
1648214351.1858857,14816,1648214351,185271012,fufi_imu_link,-0.005121887937865313,-0.012825727644103375,-0.027858406800446857,0.9995164711723825,0.0,0.0,0.0,0.0,0.0,0.0,0.0,0.0,0.0,-0.0036150964442640543,0.001065343152731657,-0.18581831455230713,0.01,0.0,0.0,0.0,0.01,0.0,0.0,0.0,0.01,0.24169045686721802,-0.255135178565979,9.625143051147461,0.01,0.0,0.0,0.0,0.01,0.0,0.0,0.0,0.01
1648214351.2134855,14817,1648214351,212673732,fufi_imu_link,-0.005101822286223692,-0.012847999130206934,-0.030407156030929396,0.999441996911187,0.0,0.0,0.0,0.0,0.0,0.0,0.0,0.0,0.0,-0.0012703151442110538,-0.0011692927218973637,-0.18610575795173645,0.01,0.0,0.0,0.0,0.01,0.0,0.0,0.0,0.01,0.22527852654457092,-0.07141900062561035,9.610640525817871,0.01,0.0,0.0,0.0,0.01,0.0,0.0,0.0,0.01
1648214351.2410865,14818,1648214351,240546104,fufi_imu_link,-0.0050534277162147066,-0.012735787024681623,-0.03291481919475813,0.999364236539689,0.0,0.0,0.0,0.0,0.0,0.0,0.0,0.0,0.0,0.0002661977778188884,0.008418292738497257,-0.18000173568725586,0.01,0.0,0.0,0.0,0.01,0.0,0.0,0.0,0.01,0.21723243594169617,-0.05618858337402344,9.627220153808594,0.01,0.0,0.0,0.0,0.01,0.0,0.0,0.0,0.01
1648214351.260394,14819,1648214351,259371134,fufi_imu_link,-0.005035704772327685,-0.012734255913536616,-0.03454744696204031,0.9993092385804205,0.0,0.0,0.0,0.0,0.0,0.0,0.0,0.0,0.0,-0.003550333669409156,0.0007286989130079746,-0.17347879707813263,0.01,0.0,0.0,0.0,0.01,0.0,0.0,0.0,0.01,0.23866897821426392,0.026711827144026756,9.673649787902832,0.01,0.0,0.0,0.0,0.01,0.0,0.0,0.0,0.01
1648214351.260944,14820,1648214351,260433653,fufi_imu_link,-0.005018119756871603,-0.01273515486339885,-0.034638493080385045,0.9993061638466118,0.0,0.0,0.0,0.0,0.0,0.0,0.0,0.0,0.0,0.001375097082927823,-0.002839487511664629,-0.17115506529808044,0.01,0.0,0.0,0.0,0.01,0.0,0.0,0.0,0.01,0.24334892630577087,-0.028034372255206108,9.673056602478027,0.01,0.0,0.0,0.0,0.01,0.0,0.0,0.0,0.01
1648214351.3264532,14821,1648214351,325496636,fufi_imu_link,-0.005132172960557326,-0.012689986069548053,-0.04007933843083466,0.9991027332988357,0.0,0.0,0.0,0.0,0.0,0.0,0.0,0.0,0.0,-0.007035733200609684,0.0021991105750203133,-0.16726428270339966,0.01,0.0,0.0,0.0,0.01,0.0,0.0,0.0,0.01,0.2672692835330963,0.07568471133708954,9.568767547607422,0.01,0.0,0.0,0.0,0.01,0.0,0.0,0.0,0.01
1648214351.3357234,14822,1648214351,335049904,fufi_imu_link,-0.005091885144426458,-0.012696632849720568,-0.04084457693912403,0.9990718636587756,0.0,0.0,0.0,0.0,0.0,0.0,0.0,0.0,0.0,-0.004877197090536356,-0.00029970239847898483,-0.1601427048444748,0.01,0.0,0.0,0.0,0.01,0.0,0.0,0.0,0.01,0.247788667678833,0.11855600774288177,9.603344917297363,0.01,0.0,0.0,0.0,0.01,0.0,0.0,0.0,0.01
1648214351.3815794,14823,1648214351,380805917,fufi_imu_link,-0.005081518323170892,-0.012663346014008285,-0.04453875844059943,0.9989144692293884,0.0,0.0,0.0,0.0,0.0,0.0,0.0,0.0,0.0,-0.004045266192406416,0.002185426652431488,-0.16154316067695618,0.01,0.0,0.0,0.0,0.01,0.0,0.0,0.0,0.01,0.2448730766773224,0.11928977817296982,9.608292579650879,0.01,0.0,0.0,0.0,0.01,0.0,0.0,0.0,0.01
1648214351.4012518,14824,1648214351,400259847,fufi_imu_link,-0.005122839499833073,-0.012680214014964592,-0.046143102119052024,0.9988412200218934,0.0,0.0,0.0,0.0,0.0,0.0,0.0,0.0,0.0,-0.003972249571233988,-0.0007181009277701378,-0.16510501503944397,0.01,0.0,0.0,0.0,0.01,0.0,0.0,0.0,0.01,0.2670016586780548,-0.1746068000793457,9.669536590576172,0.01,0.0,0.0,0.0,0.01,0.0,0.0,0.0,0.01
1648214351.4185252,14825,1648214351,417873619,fufi_imu_link,-0.005154707257645431,-0.01263471420708789,-0.04763047306788385,0.9987718112889064,0.0,0.0,0.0,0.0,0.0,0.0,0.0,0.0,0.0,-0.006345249712467194,0.0038002859801054,-0.16899284720420837,0.01,0.0,0.0,0.0,0.01,0.0,0.0,0.0,0.01,0.1812094748020172,-0.07699479907751083,9.60356330871582,0.01,0.0,0.0,0.0,0.01,0.0,0.0,0.0,0.01
1648214351.4622962,14826,1648214351,455455370,fufi_imu_link,-0.0052283141994715135,-0.012534537841047414,-0.05090896651778992,0.9986109488784076,0.0,0.0,0.0,0.0,0.0,0.0,0.0,0.0,0.0,-0.005101227667182684,0.004513846244663,-0.17463669180870056,0.01,0.0,0.0,0.0,0.01,0.0,0.0,0.0,0.01,0.1440172791481018,-0.18255271017551422,9.590639114379883,0.01,0.0,0.0,0.0,0.01,0.0,0.0,0.0,0.01
1648214351.463448,14827,1648214351,463183709,fufi_imu_link,-0.005225857833138566,-0.012514418301549824,-0.05158196127926141,0.9985766775841836,0.0,0.0,0.0,0.0,0.0,0.0,0.0,0.0,0.0,-0.0018158939201384783,0.0020368914119899273,-0.17439092695713043,0.01,0.0,0.0,0.0,0.01,0.0,0.0,0.0,0.01,0.18525327742099762,-0.08807221800088882,9.551563262939453,0.01,0.0,0.0,0.0,0.01,0.0,0.0,0.0,0.01
1648214351.4929302,14828,1648214351,492651511,fufi_imu_link,-0.005268673495871537,-0.012512344330552046,-0.05410494736177094,0.9984429563024257,0.0,0.0,0.0,0.0,0.0,0.0,0.0,0.0,0.0,-0.0028579733334481716,0.0008524442091584206,-0.1714812070131302,0.01,0.0,0.0,0.0,0.01,0.0,0.0,0.0,0.01,0.2501743733882904,-0.21423301100730896,9.595894813537598,0.01,0.0,0.0,0.0,0.01,0.0,0.0,0.0,0.01
1648214351.5221157,14829,1648214351,519474069,fufi_imu_link,-0.0052269375369265484,-0.01253021876877145,-0.05632858621057492,0.998319970308673,0.0,0.0,0.0,0.0,0.0,0.0,0.0,0.0,0.0,-0.0017044711858034134,6.664171814918518e-05,-0.16601307690143585,0.01,0.0,0.0,0.0,0.01,0.0,0.0,0.0,0.01,0.2709154486656189,0.055205345153808594,9.642753601074219,0.01,0.0,0.0,0.0,0.01,0.0,0.0,0.0,0.01
1648214351.5386515,14830,1648214351,538076265,fufi_imu_link,-0.005167819498781145,-0.012514570895350461,-0.057854139094099304,0.9982332281318901,0.0,0.0,0.0,0.0,0.0,0.0,0.0,0.0,0.0,0.003171326592564583,0.002694105263799429,-0.16431516408920288,0.01,0.0,0.0,0.0,0.01,0.0,0.0,0.0,0.01,0.24246379733085632,-0.050458092242479324,9.592703819274902,0.01,0.0,0.0,0.0,0.01,0.0,0.0,0.0,0.01
1648214351.6060016,14831,1648214351,604579364,fufi_imu_link,-0.005268782132102853,-0.012548937349216608,-0.060266767091663086,0.9980895154697144,0.0,0.0,0.0,0.0,0.0,0.0,0.0,0.0,0.0,-0.0073175327852368355,0.001752655953168869,-0.07253507524728775,0.01,0.0,0.0,0.0,0.01,0.0,0.0,0.0,0.01,0.5857285261154175,0.351789653301239,9.665913581848145,0.01,0.0,0.0,0.0,0.01,0.0,0.0,0.0,0.01
1648214351.6511314,14832,1648214351,650845036,fufi_imu_link,-0.005261002411949485,-0.012608028682325415,-0.059559795603508305,0.9981312489918526,0.0,0.0,0.0,0.0,0.0,0.0,0.0,0.0,0.0,-0.0025153213646262884,-0.0009851818904280663,0.030696701258420944,0.01,0.0,0.0,0.0,0.01,0.0,0.0,0.0,0.01,0.40317726135253906,0.217601478099823,9.753095626831055,0.01,0.0,0.0,0.0,0.01,0.0,0.0,0.0,0.01
1648214351.6796207,14833,1648214351,679232611,fufi_imu_link,-0.0054868207798186375,-0.012600429252680392,-0.05899597313383682,0.9981636134093298,0.0,0.0,0.0,0.0,0.0,0.0,0.0,0.0,0.0,-0.01078015472739935,-0.0009994502179324627,0.039865218102931976,0.01,0.0,0.0,0.0,0.01,0.0,0.0,0.0,0.01,0.22369946539402008,-0.3388047218322754,9.518919944763184,0.01,0.0,0.0,0.0,0.01,0.0,0.0,0.0,0.01
1648214351.6882677,14834,1648214351,687782079,fufi_imu_link,-0.005572082522082036,-0.01258174423871253,-0.0588017555133202,0.9981748369683693,0.0,0.0,0.0,0.0,0.0,0.0,0.0,0.0,0.0,-0.004489531274884939,0.0017095808871090412,0.04537928104400635,0.01,0.0,0.0,0.0,0.01,0.0,0.0,0.0,0.01,0.22818173468112946,-0.3413679003715515,9.656238555908203,0.01,0.0,0.0,0.0,0.01,0.0,0.0,0.0,0.01
1648214351.7072563,14835,1648214351,706519492,fufi_imu_link,-0.005674490303105998,-0.012511552387763586,-0.058365588972999566,0.9982007409536837,0.0,0.0,0.0,0.0,0.0,0.0,0.0,0.0,0.0,0.0047158608213067055,0.0023813387379050255,0.04637356102466583,0.01,0.0,0.0,0.0,0.01,0.0,0.0,0.0,0.01,0.0943034216761589,-0.6499637365341187,9.605631828308105,0.01,0.0,0.0,0.0,0.01,0.0,0.0,0.0,0.01
1648214351.7353282,14836,1648214351,734606668,fufi_imu_link,-0.005921156619985677,-0.012449525941844442,-0.05788529580146818,0.9982280509673537,0.0,0.0,0.0,0.0,0.0,0.0,0.0,0.0,0.0,-0.0021773078478872776,0.0010455693118274212,0.03408654034137726,0.01,0.0,0.0,0.0,0.01,0.0,0.0,0.0,0.01,0.12682101130485535,-0.9082614779472351,9.506576538085938,0.01,0.0,0.0,0.0,0.01,0.0,0.0,0.0,0.01
1648214351.7366214,14837,1648214351,736104411,fufi_imu_link,-0.006136559021620811,-0.01240962188902692,-0.05785706852639403,0.9982288833476408,0.0,0.0,0.0,0.0,0.0,0.0,0.0,0.0,0.0,-0.004240497946739197,0.0015444927848875523,0.03393169492483139,0.01,0.0,0.0,0.0,0.01,0.0,0.0,0.0,0.01,0.14571556448936462,-0.9301607608795166,9.662169456481934,0.01,0.0,0.0,0.0,0.01,0.0,0.0,0.0,0.01
1648214351.7549076,14838,1648214351,754188443,fufi_imu_link,-0.006421707511276517,-0.012360568614347195,-0.05759343721401012,0.9982429433790383,0.0,0.0,0.0,0.0,0.0,0.0,0.0,0.0,0.0,-0.006131487898528576,-0.0025898388121277094,0.02890838123857975,0.01,0.0,0.0,0.0,0.01,0.0,0.0,0.0,0.01,0.034452661871910095,-0.9742302894592285,9.474441528320312,0.01,0.0,0.0,0.0,0.01,0.0,0.0,0.0,0.01
1648214351.7633803,14839,1648214351,762659038,fufi_imu_link,-0.0066664381699315664,-0.012294403260618916,-0.05747428114101271,0.9982490236699035,0.0,0.0,0.0,0.0,0.0,0.0,0.0,0.0,0.0,-0.0010846717050299048,8.106697350740433e-05,0.027391867712140083,0.01,0.0,0.0,0.0,0.01,0.0,0.0,0.0,0.01,0.04744909331202507,-1.0438416004180908,9.602447509765625,0.01,0.0,0.0,0.0,0.01,0.0,0.0,0.0,0.01
1648214351.813306,14840,1648214351,809334567,fufi_imu_link,-0.007058509800587908,-0.012256430480187536,-0.05722754078064298,0.9982609708525518,0.0,0.0,0.0,0.0,0.0,0.0,0.0,0.0,0.0,-0.002987092826515436,-0.001227943692356348,0.010430688038468361,0.01,0.0,0.0,0.0,0.01,0.0,0.0,0.0,0.01,0.07768138498067856,-1.3413286209106445,9.485797882080078,0.01,0.0,0.0,0.0,0.01,0.0,0.0,0.0,0.01
1648214351.8133168,14841,1648214351,810576802,fufi_imu_link,-0.0073507485613720416,-0.012213447306047004,-0.05721900466747748,0.9982598778401109,0.0,0.0,0.0,0.0,0.0,0.0,0.0,0.0,0.0,-0.006684684194624424,-0.000302949920296669,0.007531272247433662,0.01,0.0,0.0,0.0,0.01,0.0,0.0,0.0,0.01,0.1399722695350647,-1.233726978302002,9.526261329650879,0.01,0.0,0.0,0.0,0.01,0.0,0.0,0.0,0.01
1648214351.8760211,14842,1648214351,875420685,fufi_imu_link,-0.007443400501723992,-0.012305640154870371,-0.057653277170911094,0.9982330723036599,0.0,0.0,0.0,0.0,0.0,0.0,0.0,0.0,0.0,0.004573571030050516,-0.0030526057817041874,-0.01359458826482296,0.01,0.0,0.0,0.0,0.01,0.0,0.0,0.0,0.01,0.2240753173828125,-1.0400720834732056,9.463903427124023,0.01,0.0,0.0,0.0,0.01,0.0,0.0,0.0,0.01
1648214351.8852568,14843,1648214351,884826335,fufi_imu_link,-0.007677638155795059,-0.01229570823799451,-0.057724301157987754,0.9982273160393362,0.0,0.0,0.0,0.0,0.0,0.0,0.0,0.0,0.0,-0.00021459072013385594,-0.0031331980135291815,-0.015818914398550987,0.01,0.0,0.0,0.0,0.01,0.0,0.0,0.0,0.01,0.2042723000049591,-1.0568592548370361,9.81629753112793,0.01,0.0,0.0,0.0,0.01,0.0,0.0,0.0,0.01
1648214351.9312723,14844,1648214351,930727948,fufi_imu_link,-0.0074826346224141915,-0.012219967833493404,-0.05794901023054323,0.998216707322892,0.0,0.0,0.0,0.0,0.0,0.0,0.0,0.0,0.0,0.014372565783560276,0.0014400416985154152,-0.01006985455751419,0.01,0.0,0.0,0.0,0.01,0.0,0.0,0.0,0.01,0.028853677213191986,-0.6381621360778809,9.07075023651123,0.01,0.0,0.0,0.0,0.01,0.0,0.0,0.0,0.01
1648214351.9507627,14845,1648214351,950179038,fufi_imu_link,-0.00758087143006008,-0.011983786089385055,-0.05809671070490816,0.9982102441192412,0.0,0.0,0.0,0.0,0.0,0.0,0.0,0.0,0.0,0.004118047654628754,0.019123679026961327,-0.015352066606283188,0.01,0.0,0.0,0.0,0.01,0.0,0.0,0.0,0.01,0.0624658428132534,-0.6872454881668091,9.154600143432617,0.01,0.0,0.0,0.0,0.01,0.0,0.0,0.0,0.01
1648214351.9684334,14846,1648214351,967894044,fufi_imu_link,-0.007715751573130838,-0.011856358488225938,-0.058239304109965265,0.9982024230574916,0.0,0.0,0.0,0.0,0.0,0.0,0.0,0.0,0.0,-0.0048929620534181595,0.01164289191365242,-0.016136683523654938,0.01,0.0,0.0,0.0,0.01,0.0,0.0,0.0,0.01,0.17861641943454742,-0.5453101396560669,10.08167552947998,0.01,0.0,0.0,0.0,0.01,0.0,0.0,0.0,0.01
1648214352.0063684,14847,1648214352,5683185,fufi_imu_link,-0.007732112683627314,-0.01201105821956892,-0.058453833725482095,0.9981879072783278,0.0,0.0,0.0,0.0,0.0,0.0,0.0,0.0,0.0,-0.0007279026322066784,-0.008932513184845448,-0.011437386274337769,0.01,0.0,0.0,0.0,0.01,0.0,0.0,0.0,0.01,0.18071702122688293,-0.1194523274898529,9.52929973602295,0.01,0.0,0.0,0.0,0.01,0.0,0.0,0.0,0.01
1648214352.0139706,14848,1648214352,13464159,fufi_imu_link,-0.007763358994846769,-0.012014369114079807,-0.05850041344431973,0.998184896108307,0.0,0.0,0.0,0.0,0.0,0.0,0.0,0.0,0.0,-0.01584344543516636,-0.0038388047832995653,-0.011750628240406513,0.01,0.0,0.0,0.0,0.01,0.0,0.0,0.0,0.01,0.19749049842357635,-0.020134344696998596,9.462939262390137,0.01,0.0,0.0,0.0,0.01,0.0,0.0,0.0,0.01
1648214352.0429857,14849,1648214352,42727698,fufi_imu_link,-0.007679913354739391,-0.0119649560744079,-0.05865349104457868,0.9981771519851999,0.0,0.0,0.0,0.0,0.0,0.0,0.0,0.0,0.0,0.0005136787076480687,0.0032123266719281673,-0.01040365919470787,0.01,0.0,0.0,0.0,0.01,0.0,0.0,0.0,0.01,0.20558622479438782,0.13716790080070496,9.56744384765625,0.01,0.0,0.0,0.0,0.01,0.0,0.0,0.0,0.01
1648214352.06985,14850,1648214352,69529087,fufi_imu_link,-0.0075853305163589594,-0.012052247330937824,-0.05872383574778282,0.9981726890725366,0.0,0.0,0.0,0.0,0.0,0.0,0.0,0.0,0.0,-0.002768498146906495,-0.00660952553153038,-0.005149452015757561,0.01,0.0,0.0,0.0,0.01,0.0,0.0,0.0,0.01,0.2238815724849701,0.41106244921684265,10.185906410217285,0.01,0.0,0.0,0.0,0.01,0.0,0.0,0.0,0.01
1648214352.0884123,14851,1648214352,88092948,fufi_imu_link,-0.007491927512503386,-0.01208271532982708,-0.058765100674824884,0.9981705976210097,0.0,0.0,0.0,0.0,0.0,0.0,0.0,0.0,0.0,-0.0025929459370672703,-0.005199562292546034,-0.004312518984079361,0.01,0.0,0.0,0.0,0.01,0.0,0.0,0.0,0.01,0.15696726739406586,0.3389631509780884,10.061578750610352,0.01,0.0,0.0,0.0,0.01,0.0,0.0,0.0,0.01
1648214352.1178584,14852,1648214352,117490186,fufi_imu_link,-0.007913579784938804,-0.012091263710615629,-0.05874524994506854,0.998168408739607,0.0,0.0,0.0,0.0,0.0,0.0,0.0,0.0,0.0,-0.038045164197683334,0.001282047014683485,0.001968199387192726,0.01,0.0,0.0,0.0,0.01,0.0,0.0,0.0,0.01,0.4261014461517334,0.38082826137542725,9.273994445800781,0.01,0.0,0.0,0.0,0.01,0.0,0.0,0.0,0.01
1648214352.1552434,14853,1648214352,154645462,fufi_imu_link,-0.007509294024730877,-0.012026139881585256,-0.05860225501608143,0.9981807242027011,0.0,0.0,0.0,0.0,0.0,0.0,0.0,0.0,0.0,0.01210943516343832,0.005863251630216837,0.007740052416920662,0.01,0.0,0.0,0.0,0.01,0.0,0.0,0.0,0.01,0.32785356044769287,0.5587441921234131,9.832252502441406,0.01,0.0,0.0,0.0,0.01,0.0,0.0,0.0,0.01
1648214352.1639757,14854,1648214352,163253655,fufi_imu_link,-0.0072294235725311,-0.012043073759276839,-0.05857828240205826,0.9981839933800093,0.0,0.0,0.0,0.0,0.0,0.0,0.0,0.0,0.0,0.023246990516781807,0.005137777887284756,0.005907732993364334,0.01,0.0,0.0,0.0,0.01,0.0,0.0,0.0,0.01,0.32068169116973877,0.5568854212760925,9.43825626373291,0.01,0.0,0.0,0.0,0.01,0.0,0.0,0.0,0.01
1648214352.2020934,14855,1648214352,201322103,fufi_imu_link,-0.00720794104290893,-0.012064005592720601,-0.0583661999300947,0.9981963193984944,0.0,0.0,0.0,0.0,0.0,0.0,0.0,0.0,0.0,-0.009954525157809258,-0.001869197003543377,0.01140955276787281,0.01,0.0,0.0,0.0,0.01,0.0,0.0,0.0,0.01,0.1899181455373764,0.7211017608642578,9.919279098510742,0.01,0.0,0.0,0.0,0.01,0.0,0.0,0.0,0.01
1648214352.2302356,14856,1648214352,229371249,fufi_imu_link,-0.006942229756243118,-0.012205154733637142,-0.058134843968742335,0.9982099877083326,0.0,0.0,0.0,0.0,0.0,0.0,0.0,0.0,0.0,0.0014762483770027757,-0.006963689345866442,0.01670580729842186,0.01,0.0,0.0,0.0,0.01,0.0,0.0,0.0,0.01,0.34363141655921936,0.8355771899223328,9.316682815551758,0.01,0.0,0.0,0.0,0.01,0.0,0.0,0.0,0.01
1648214352.238795,14857,1648214352,238050683,fufi_imu_link,-0.006711388442197283,-0.012267327641181599,-0.058042287222482745,0.9982161904275569,0.0,0.0,0.0,0.0,0.0,0.0,0.0,0.0,0.0,0.013378589414060116,-0.00790393352508545,0.021696025505661964,0.01,0.0,0.0,0.0,0.01,0.0,0.0,0.0,0.01,0.29121488332748413,0.5470319390296936,9.324372291564941,0.01,0.0,0.0,0.0,0.01,0.0,0.0,0.0,0.01
1648214352.2852526,14858,1648214352,284599702,fufi_imu_link,-0.006584335646983754,-0.012061279436168025,-0.05803158697629464,0.9982201695895867,0.0,0.0,0.0,0.0,0.0,0.0,0.0,0.0,0.0,-0.002033856464549899,0.0074394624680280685,0.0006158258765935898,0.01,0.0,0.0,0.0,0.01,0.0,0.0,0.0,0.01,0.08527404069900513,0.5039090514183044,9.516279220581055,0.01,0.0,0.0,0.0,0.01,0.0,0.0,0.0,0.01
1648214352.2861278,14859,1648214352,285517487,fufi_imu_link,-0.006376719703222143,-0.012052710315735017,-0.05803651386402265,0.9982213345137353,0.0,0.0,0.0,0.0,0.0,0.0,0.0,0.0,0.0,0.0046930257230997086,0.00590310525149107,-0.005286501720547676,0.01,0.0,0.0,0.0,0.01,0.0,0.0,0.0,0.01,0.17042365670204163,0.6780509352684021,9.652265548706055,0.01,0.0,0.0,0.0,0.01,0.0,0.0,0.0,0.01
1648214352.3049495,14860,1648214352,304304924,fufi_imu_link,-0.006270426903476409,-0.012042096880065006,-0.05808220775365656,0.9982194782669993,0.0,0.0,0.0,0.0,0.0,0.0,0.0,0.0,0.0,-0.007351390551775694,0.0001346934586763382,-0.004555905237793922,0.01,0.0,0.0,0.0,0.01,0.0,0.0,0.0,0.01,0.17666880786418915,0.5564053654670715,9.554716110229492,0.01,0.0,0.0,0.0,0.01,0.0,0.0,0.0,0.01
1648214352.3513157,14861,1648214352,350674209,fufi_imu_link,-0.006332870316600597,-0.011859234859072679,-0.0584892225928188,0.9981975075818403,0.0,0.0,0.0,0.0,0.0,0.0,0.0,0.0,0.0,-0.008923857472836971,0.005946047604084015,-0.017381396144628525,0.01,0.0,0.0,0.0,0.01,0.0,0.0,0.0,0.01,0.06813938915729523,0.38244712352752686,9.542201042175293,0.01,0.0,0.0,0.0,0.01,0.0,0.0,0.0,0.01
1648214352.3608472,14862,1648214352,360141491,fufi_imu_link,-0.006211027904648613,-0.011830788595465597,-0.05858193697360254,0.9981931738065523,0.0,0.0,0.0,0.0,0.0,0.0,0.0,0.0,0.0,-0.004395969677716494,0.002127818763256073,-0.019213350489735603,0.01,0.0,0.0,0.0,0.01,0.0,0.0,0.0,0.01,0.13720999658107758,0.43736398220062256,9.802602767944336,0.01,0.0,0.0,0.0,0.01,0.0,0.0,0.0,0.01
1648214352.426208,14863,1648214352,425603598,fufi_imu_link,-0.006363237402813748,-0.011790176216760791,-0.0588740017901297,0.9981755120557451,0.0,0.0,0.0,0.0,0.0,0.0,0.0,0.0,0.0,-0.007190616335719824,0.0016623339615762234,-0.00881112925708294,0.01,0.0,0.0,0.0,0.01,0.0,0.0,0.0,0.01,0.3173830509185791,0.1895970106124878,9.698501586914062,0.01,0.0,0.0,0.0,0.01,0.0,0.0,0.0,0.01
1648214352.4360535,14864,1648214352,435484424,fufi_imu_link,-0.006396100379505084,-0.011767042953769217,-0.05897168422968215,0.9981698087295439,0.0,0.0,0.0,0.0,0.0,0.0,0.0,0.0,0.0,-0.007754746358841658,-0.0005164789035916328,-0.01973700150847435,0.01,0.0,0.0,0.0,0.01,0.0,0.0,0.0,0.01,0.13976797461509705,-0.0977696031332016,9.577919006347656,0.01,0.0,0.0,0.0,0.01,0.0,0.0,0.0,0.01
1648214352.4727504,14865,1648214352,470869621,fufi_imu_link,-0.006631480664832135,-0.011736154566282206,-0.05899335182722725,0.99816735599817,0.0,0.0,0.0,0.0,0.0,0.0,0.0,0.0,0.0,-0.011431806720793247,0.0017151348292827606,-0.0011018142104148865,0.01,0.0,0.0,0.0,0.01,0.0,0.0,0.0,0.01,0.2814082205295563,-0.245207741856575,9.534782409667969,0.01,0.0,0.0,0.0,0.01,0.0,0.0,0.0,0.01
1648214352.5011475,14866,1648214352,500403352,fufi_imu_link,-0.006799050724453708,-0.011762679066461609,-0.05910210719122354,0.9981594828563134,0.0,0.0,0.0,0.0,0.0,0.0,0.0,0.0,0.0,-0.006275669671595097,-0.002544004237279296,-0.007385149598121643,0.01,0.0,0.0,0.0,0.01,0.0,0.0,0.0,0.01,0.2268596887588501,-0.4025890529155731,9.626201629638672,0.01,0.0,0.0,0.0,0.01,0.0,0.0,0.0,0.01
1648214352.5651917,14867,1648214352,564432137,fufi_imu_link,-0.00697280441659927,-0.011725771003169757,-0.062040228888481826,0.9979804087718426,0.0,0.0,0.0,0.0,0.0,0.0,0.0,0.0,0.0,-0.002874708268791437,-0.0013826815411448479,-0.09199012815952301,0.01,0.0,0.0,0.0,0.01,0.0,0.0,0.0,0.01,-0.10259492695331573,-0.5636893510818481,9.369458198547363,0.01,0.0,0.0,0.0,0.01,0.0,0.0,0.0,0.01
1648214352.575864,14868,1648214352,575124503,fufi_imu_link,-0.007111934364741946,-0.011630475409696151,-0.06264275926168848,0.9979429027471554,0.0,0.0,0.0,0.0,0.0,0.0,0.0,0.0,0.0,0.007687860168516636,-0.0027640671469271183,-0.11360302567481995,0.01,0.0,0.0,0.0,0.01,0.0,0.0,0.0,0.01,-0.17357811331748962,-0.8777441382408142,9.759896278381348,0.01,0.0,0.0,0.0,0.01,0.0,0.0,0.0,0.01
1648214352.5983586,14869,1648214352,595780598,fufi_imu_link,-0.007438294087661096,-0.011430563430374024,-0.06414854336538317,0.9978471718579099,0.0,0.0,0.0,0.0,0.0,0.0,0.0,0.0,0.0,-0.015268593095242977,0.010632827877998352,-0.1461317241191864,0.01,0.0,0.0,0.0,0.01,0.0,0.0,0.0,0.01,-0.07294602692127228,-0.890826940536499,9.597633361816406,0.01,0.0,0.0,0.0,0.01,0.0,0.0,0.0,0.01
1648214352.6402528,14870,1648214352,639665023,fufi_imu_link,-0.007407000131738671,-0.011452694490942111,-0.06952236453636834,0.997487149274224,0.0,0.0,0.0,0.0,0.0,0.0,0.0,0.0,0.0,0.003840615740045905,-0.003937324974685907,-0.2456481158733368,0.01,0.0,0.0,0.0,0.01,0.0,0.0,0.0,0.01,-0.16175943613052368,-0.5802030563354492,9.742958068847656,0.01,0.0,0.0,0.0,0.01,0.0,0.0,0.0,0.01
1648214352.6414485,14871,1648214352,640583188,fufi_imu_link,-0.007519622691986617,-0.011330530999017742,-0.0696417628579225,0.9974793728232637,0.0,0.0,0.0,0.0,0.0,0.0,0.0,0.0,0.0,-0.0037487416993826628,0.004638057202100754,-0.2653326690196991,0.01,0.0,0.0,0.0,0.01,0.0,0.0,0.0,0.01,-0.20291927456855774,-0.5866408348083496,9.53879165649414,0.01,0.0,0.0,0.0,0.01,0.0,0.0,0.0,0.01
1648214352.6677165,14872,1648214352,667456237,fufi_imu_link,-0.007675279933725315,-0.011162019000902459,-0.07372121725425901,0.9971868839572213,0.0,0.0,0.0,0.0,0.0,0.0,0.0,0.0,0.0,-0.013573861680924892,0.008563674986362457,-0.30426499247550964,0.01,0.0,0.0,0.0,0.01,0.0,0.0,0.0,0.01,-0.04197820648550987,-0.26669132709503174,9.900487899780273,0.01,0.0,0.0,0.0,0.01,0.0,0.0,0.0,0.01
1648214352.704914,14873,1648214352,704607400,fufi_imu_link,-0.007905190183165607,-0.011156743524273212,-0.07949572207827735,0.9967414234460986,0.0,0.0,0.0,0.0,0.0,0.0,0.0,0.0,0.0,-0.015465051867067814,0.00017407769337296486,-0.31165480613708496,0.01,0.0,0.0,0.0,0.01,0.0,0.0,0.0,0.01,0.13032320141792297,-0.17120352387428284,9.441987037658691,0.01,0.0,0.0,0.0,0.01,0.0,0.0,0.0,0.01
1648214352.7131271,14874,1648214352,712849617,fufi_imu_link,-0.007885455829220607,-0.01116341054649707,-0.08075585635325055,0.9966402006320981,0.0,0.0,0.0,0.0,0.0,0.0,0.0,0.0,0.0,-0.006204481702297926,-0.00044449837878346443,-0.30664071440696716,0.01,0.0,0.0,0.0,0.01,0.0,0.0,0.0,0.01,0.20905910432338715,-0.015841400250792503,9.817991256713867,0.01,0.0,0.0,0.0,0.01,0.0,0.0,0.0,0.01
1648214352.7512848,14875,1648214352,751016624,fufi_imu_link,-0.007850064182413534,-0.011314457774926472,-0.08607488906897379,0.9961934917521571,0.0,0.0,0.0,0.0,0.0,0.0,0.0,0.0,0.0,-0.0038333607371896505,-0.006223016884177923,-0.2796991765499115,0.01,0.0,0.0,0.0,0.01,0.0,0.0,0.0,0.01,0.19464513659477234,0.08767612278461456,9.456657409667969,0.01,0.0,0.0,0.0,0.01,0.0,0.0,0.0,0.01
1648214352.7802613,14876,1648214352,779490072,fufi_imu_link,-0.007767783176378937,-0.011415722601145865,-0.08992190047659718,0.995853098924081,0.0,0.0,0.0,0.0,0.0,0.0,0.0,0.0,0.0,0.0001228338514920324,-0.005236552096903324,-0.27130478620529175,0.01,0.0,0.0,0.0,0.01,0.0,0.0,0.0,0.01,0.20539774000644684,0.03464961796998978,9.66616439819336,0.01,0.0,0.0,0.0,0.01,0.0,0.0,0.0,0.01
1648214352.7887208,14877,1648214352,788068575,fufi_imu_link,-0.00775505728236909,-0.01138730796286496,-0.09106336125473366,0.9957497941455454,0.0,0.0,0.0,0.0,0.0,0.0,0.0,0.0,0.0,-0.009479029104113579,0.009586856700479984,-0.2669457197189331,0.01,0.0,0.0,0.0,0.01,0.0,0.0,0.0,0.01,0.24422438442707062,0.012745657004415989,9.513114929199219,0.01,0.0,0.0,0.0,0.01,0.0,0.0,0.0,0.01
1648214352.8359442,14878,1648214352,834593862,fufi_imu_link,-0.007463613168812426,-0.011292099069150014,-0.09700629707023055,0.9951917208788471,0.0,0.0,0.0,0.0,0.0,0.0,0.0,0.0,0.0,0.005825381726026535,0.00825877021998167,-0.2565917372703552,0.01,0.0,0.0,0.0,0.01,0.0,0.0,0.0,0.01,0.3555915355682373,0.16631636023521423,9.843871116638184,0.01,0.0,0.0,0.0,0.01,0.0,0.0,0.0,0.01
1648214352.8447766,14879,1648214352,844183146,fufi_imu_link,-0.007345507017906781,-0.011244182311595019,-0.0981902405371123,0.9950770264427059,0.0,0.0,0.0,0.0,0.0,0.0,0.0,0.0,0.0,0.00701254652813077,0.002718077041208744,-0.24808387458324432,0.01,0.0,0.0,0.0,0.01,0.0,0.0,0.0,0.01,0.023640163242816925,0.1304842233657837,9.698222160339355,0.01,0.0,0.0,0.0,0.01,0.0,0.0,0.0,0.01
1648214352.863579,14880,1648214352,862877671,fufi_imu_link,-0.0072915325909476,-0.01127503597230318,-0.10040495553211533,0.9948560458784439,0.0,0.0,0.0,0.0,0.0,0.0,0.0,0.0,0.0,-0.0034244523849338293,-0.003592462744563818,-0.23805204033851624,0.01,0.0,0.0,0.0,0.01,0.0,0.0,0.0,0.01,0.14480452239513397,0.11988959461450577,9.585131645202637,0.01,0.0,0.0,0.0,0.01,0.0,0.0,0.0,0.01
1648214352.9101493,14881,1648214352,909430579,fufi_imu_link,-0.007187154064475956,-0.011167277754906732,-0.1060618960114661,0.9942708438541539,0.0,0.0,0.0,0.0,0.0,0.0,0.0,0.0,0.0,-0.00012626926763914526,0.0055401939898729324,-0.24431124329566956,0.01,0.0,0.0,0.0,0.01,0.0,0.0,0.0,0.01,0.136798694729805,-0.008251966908574104,9.52147388458252,0.01,0.0,0.0,0.0,0.01,0.0,0.0,0.0,0.01
1648214352.9109967,14882,1648214352,910300575,fufi_imu_link,-0.0071738268526018775,-0.011126929432255014,-0.1061691335139427,0.9942599472666075,0.0,0.0,0.0,0.0,0.0,0.0,0.0,0.0,0.0,-0.00544026680290699,0.007169296965003014,-0.2479659914970398,0.01,0.0,0.0,0.0,0.01,0.0,0.0,0.0,0.01,0.07695350050926208,-0.07502835988998413,9.494571685791016,0.01,0.0,0.0,0.0,0.01,0.0,0.0,0.0,0.01
1648214352.9764318,14883,1648214352,975673369,fufi_imu_link,-0.0072213590676932496,-0.01093588302756304,-0.11463919630841715,0.9933207503648472,0.0,0.0,0.0,0.0,0.0,0.0,0.0,0.0,0.0,-0.0055657015182077885,0.007977541536092758,-0.26062676310539246,0.01,0.0,0.0,0.0,0.01,0.0,0.0,0.0,0.01,0.3179095983505249,-0.060920655727386475,9.485733985900879,0.01,0.0,0.0,0.0,0.01,0.0,0.0,0.0,0.01
1648214352.9858286,14884,1648214352,985166386,fufi_imu_link,-0.007227277359348319,-0.010917081157210923,-0.11587052538090258,0.9931780329573,0.0,0.0,0.0,0.0,0.0,0.0,0.0,0.0,0.0,-0.01259890291839838,0.011152312159538269,-0.2608376443386078,0.01,0.0,0.0,0.0,0.01,0.0,0.0,0.0,0.01,0.3293739855289459,0.029060794040560722,9.589738845825195,0.01,0.0,0.0,0.0,0.01,0.0,0.0,0.0,0.01
1648214353.0510232,14885,1648214353,50390632,fufi_imu_link,-0.007626720010348887,-0.010933383272845288,-0.12374961633911827,0.9922239297295817,0.0,0.0,0.0,0.0,0.0,0.0,0.0,0.0,0.0,-0.015363749116659164,-0.0009647016413509846,-0.24321557581424713,0.01,0.0,0.0,0.0,0.01,0.0,0.0,0.0,0.01,0.16667702794075012,-0.06899122893810272,9.593917846679688,0.01,0.0,0.0,0.0,0.01,0.0,0.0,0.0,0.01
1648214353.0686624,14886,1648214353,67948431,fufi_imu_link,-0.007691518601602548,-0.010891550246224206,-0.12587860292490144,0.9919560433812127,0.0,0.0,0.0,0.0,0.0,0.0,0.0,0.0,0.0,-0.014227611944079399,0.006180476397275925,-0.24419425427913666,0.01,0.0,0.0,0.0,0.01,0.0,0.0,0.0,0.01,0.25301486253738403,-0.004993877839297056,9.548381805419922,0.01,0.0,0.0,0.0,0.01,0.0,0.0,0.0,0.01
1648214353.1065621,14887,1648214353,105839571,fufi_imu_link,-0.00756151639604902,-0.010867326624022417,-0.1304793805981794,0.9913626258441229,0.0,0.0,0.0,0.0,0.0,0.0,0.0,0.0,0.0,0.00444951793178916,0.002883240580558777,-0.2449246048927307,0.01,0.0,0.0,0.0,0.01,0.0,0.0,0.0,0.01,0.17221307754516602,-0.169195756316185,9.729000091552734,0.01,0.0,0.0,0.0,0.01,0.0,0.0,0.0,0.01
1648214353.115032,14888,1648214353,114442081,fufi_imu_link,-0.007554758401661153,-0.010853511951010983,-0.1315022027594393,0.9912276719166174,0.0,0.0,0.0,0.0,0.0,0.0,0.0,0.0,0.0,-0.008334062993526459,0.006935723125934601,-0.23964723944664001,0.01,0.0,0.0,0.0,0.01,0.0,0.0,0.0,0.01,0.25965428352355957,-0.006989799439907074,9.588558197021484,0.01,0.0,0.0,0.0,0.01,0.0,0.0,0.0,0.01
1648214353.1258113,14889,1648214353,125200429,fufi_imu_link,-0.007522094869329019,-0.010851837702599048,-0.13274031915245835,0.991062895773299,0.0,0.0,0.0,0.0,0.0,0.0,0.0,0.0,0.0,0.002235932508483529,-0.0003906805068254471,-0.2322525978088379,0.01,0.0,0.0,0.0,0.01,0.0,0.0,0.0,0.01,0.1694622039794922,-0.09674778580665588,9.800392150878906,0.01,0.0,0.0,0.0,0.01,0.0,0.0,0.0,0.01
1648214353.1439388,14890,1648214353,142924184,fufi_imu_link,-0.007500087052394097,-0.010838625773115706,-0.134705828414727,0.9907979676385389,0.0,0.0,0.0,0.0,0.0,0.0,0.0,0.0,0.0,-0.0034327153116464615,0.0036591156385838985,-0.22371792793273926,0.01,0.0,0.0,0.0,0.01,0.0,0.0,0.0,0.01,0.24021708965301514,-0.010717421770095825,9.503044128417969,0.01,0.0,0.0,0.0,0.01,0.0,0.0,0.0,0.01
1648214353.1811342,14891,1648214353,180404960,fufi_imu_link,-0.007345996632827481,-0.010759626667523978,-0.1385337932777776,0.9902720105544315,0.0,0.0,0.0,0.0,0.0,0.0,0.0,0.0,0.0,0.004323390778154135,0.005389292258769274,-0.20621655881404877,0.01,0.0,0.0,0.0,0.01,0.0,0.0,0.0,0.01,0.14399990439414978,-0.05203627422451973,9.63154411315918,0.01,0.0,0.0,0.0,0.01,0.0,0.0,0.0,0.01
1648214353.1893034,14892,1648214353,188579525,fufi_imu_link,-0.007309542529265312,-0.010746015313582049,-0.13934467975896828,0.9901586509068957,0.0,0.0,0.0,0.0,0.0,0.0,0.0,0.0,0.0,-0.0028331000357866287,0.004659442696720362,-0.20018136501312256,0.01,0.0,0.0,0.0,0.01,0.0,0.0,0.0,0.01,0.2085900604724884,0.028388947248458862,9.642425537109375,0.01,0.0,0.0,0.0,0.01,0.0,0.0,0.0,0.01
1648214353.2181385,14893,1648214353,217581074,fufi_imu_link,-0.007343710897962102,-0.010772794293152869,-0.14199854851221796,0.989781000541932,0.0,0.0,0.0,0.0,0.0,0.0,0.0,0.0,0.0,-0.006108616944402456,-0.001047173049300909,-0.18478795886039734,0.01,0.0,0.0,0.0,0.01,0.0,0.0,0.0,0.01,0.2260904163122177,-0.006193607114255428,9.544026374816895,0.01,0.0,0.0,0.0,0.01,0.0,0.0,0.0,0.01
1648214353.2553828,14894,1648214353,254744679,fufi_imu_link,-0.007482014655232852,-0.010706106370342156,-0.144928293410395,0.9893559463167118,0.0,0.0,0.0,0.0,0.0,0.0,0.0,0.0,0.0,-0.00811063777655363,0.002307961229234934,-0.15924948453903198,0.01,0.0,0.0,0.0,0.01,0.0,0.0,0.0,0.01,0.1461767852306366,-0.22801554203033447,9.57611083984375,0.01,0.0,0.0,0.0,0.01,0.0,0.0,0.0,0.01
